time,ax,ay,az,atotal
0.00657200813293457,-0.24,0.04,-0.24,0.34
0.016726016998291016,0.05,-0.33,-0.04,0.33
0.04418611526489258,0.16,-0.28,0.07,0.33
0.046697139739990234,0.13,-0.04,0.07,0.15
0.049481868743896484,0.2,0.0,0.16,0.25
0.055364131927490234,0.26,-0.05,0.3,0.4
0.06618690490722656,0.25,-0.07,0.34,0.42
0.07521700859069824,0.18,-0.05,0.33,0.37
0.08526897430419922,0.07,-0.05,0.31,0.32
0.0960550308227539,-0.03,-0.08,0.23,0.24
0.1064748764038086,-0.12,-0.08,0.12,0.18
0.11617898941040039,-0.17,-0.05,-0.01,0.17
0.1442551612854004,-0.18,-0.05,-0.16,0.24
0.14679718017578125,-0.17,-0.05,-0.25,0.3
0.14925503730773926,-0.17,-0.06,-0.21,0.27
0.15480518341064453,-0.18,-0.07,-0.15,0.24
0.16615509986877441,-0.18,-0.08,-0.12,0.23
0.1747589111328125,-0.17,-0.09,-0.05,0.19
0.18459320068359375,-0.17,-0.1,0.03,0.19
0.19523406028747559,-0.18,-0.11,0.06,0.21
0.20553112030029297,-0.17,-0.1,0.06,0.2
0.21548199653625488,-0.14,-0.1,0.06,0.18
0.2431190013885498,-0.08,-0.11,0.08,0.15
0.2458500862121582,-0.03,-0.12,0.15,0.19
0.24845099449157715,0.0,-0.13,0.23,0.26
0.2546100616455078,-0.02,-0.14,0.31,0.34
0.26482391357421875,-0.04,-0.15,0.32,0.35
0.2742629051208496,-0.06,-0.16,0.26,0.31
0.28473520278930664,-0.09,-0.16,0.16,0.24
0.2948000431060791,-0.09,-0.14,0.07,0.18
0.30477404594421387,-0.07,-0.14,-0.05,0.16
0.3151111602783203,-0.05,-0.11,-0.14,0.18
0.34259700775146484,-0.05,-0.08,-0.16,0.18
0.3449380397796631,-0.04,-0.05,-0.17,0.18
0.3473649024963379,-0.06,-0.02,-0.15,0.16
0.3538820743560791,-0.04,-0.03,-0.1,0.11
0.36429309844970703,-0.02,-0.06,-0.01,0.06
0.37387704849243164,-0.06,-0.06,0.04,0.09
0.3843879699707031,-0.13,-0.08,0.04,0.15
0.39437007904052734,-0.17,-0.08,0.07,0.2
0.4041140079498291,-0.19,-0.08,0.08,0.22
0.4140360355377197,-0.2,-0.07,0.06,0.22
0.44287800788879395,-0.2,-0.07,0.01,0.21
0.446026086807251,-0.21,-0.06,-0.03,0.22
0.4483470916748047,-0.2,-0.06,-0.03,0.21
0.45332813262939453,-0.19,-0.04,-0.05,0.2
0.4632401466369629,-0.19,0.01,-0.05,0.19
0.4742140769958496,-0.18,0.01,-0.06,0.19
0.48407411575317383,-0.13,0.0,-0.08,0.15
0.49407505989074707,-0.08,-0.01,-0.05,0.09
0.503899097442627,-0.07,0.0,0.0,0.07
0.5139110088348389,-0.12,0.07,0.01,0.13
0.5429129600524902,-0.13,0.1,0.03,0.16
0.5454890727996826,-0.13,0.08,0.02,0.15
0.5479910373687744,-0.09,0.07,-0.03,0.11
0.5527679920196533,-0.09,0.08,-0.07,0.13
0.5630621910095215,-0.1,0.09,-0.09,0.16
0.5728750228881836,-0.11,0.07,-0.09,0.15
0.5836071968078613,-0.14,0.07,-0.13,0.2
0.593235969543457,-0.17,0.1,-0.13,0.23
0.6034789085388184,-0.15,0.11,-0.09,0.2
0.6131100654602051,-0.13,0.07,-0.04,0.15
0.6420369148254395,-0.16,0.08,-0.04,0.18
0.6446609497070312,-0.15,0.04,-0.07,0.17
0.6472458839416504,-0.15,-0.01,-0.03,0.15
0.6524910926818848,-0.16,-0.04,-0.02,0.16
0.662208080291748,-0.13,-0.04,-0.06,0.14
0.6727440357208252,-0.12,-0.07,-0.05,0.14
0.6832089424133301,-0.14,-0.03,-0.02,0.14
0.6925511360168457,-0.16,0.0,-0.02,0.16
0.702800989151001,-0.18,0.03,-0.07,0.19
0.7129020690917969,-0.18,0.03,-0.1,0.2
0.7417421340942383,-0.17,0.03,-0.14,0.22
0.7443830966949463,-0.16,0.0,-0.17,0.23
0.747002124786377,-0.13,-0.02,-0.15,0.19
0.7518939971923828,-0.08,-0.03,-0.21,0.22
0.7615818977355957,-0.03,-0.03,-0.26,0.26
0.7716689109802246,-0.01,-0.02,-0.24,0.24
0.782656192779541,0.01,-0.04,-0.27,0.27
0.7923440933227539,-0.02,-0.01,-0.25,0.25
0.8018560409545898,-0.02,-0.05,-0.16,0.16
0.8119029998779297,-0.07,-0.07,0.03,0.1
0.8410930633544922,-0.17,-0.02,0.23,0.28
0.8439760208129883,-0.28,-0.01,0.4,0.48
0.8464169502258301,-0.38,-0.08,0.54,0.66
0.8511080741882324,-0.34,-0.05,0.65,0.73
0.8615350723266602,-0.28,0.01,0.67,0.72
0.8717560768127441,-0.06,0.05,0.54,0.54
0.8826720714569092,0.13,0.12,0.31,0.35
0.8916659355163574,0.16,0.27,0.07,0.32
0.901522159576416,0.14,0.38,-0.16,0.43
0.9116630554199219,0.15,0.39,-0.39,0.57
0.9405550956726074,0.18,0.37,-0.57,0.7
0.9433531761169434,0.24,0.33,-0.67,0.78
0.9457578659057617,0.32,0.32,-0.7,0.83
0.9517989158630371,0.34,0.34,-0.65,0.8
0.9606180191040039,0.34,0.35,-0.56,0.74
0.9704689979553223,0.32,0.35,-0.43,0.64
0.9809579849243164,0.26,0.33,-0.29,0.51
0.9923920631408691,0.12,0.31,-0.16,0.36
1.0012860298156738,-0.04,0.27,-0.06,0.27
1.0111360549926758,-0.13,0.19,-0.03,0.23
1.0388410091400146,-0.18,0.13,0.05,0.22
1.0416550636291504,-0.21,0.09,0.14,0.26
1.0440490245819092,-0.28,0.04,0.22,0.35
1.0523228645324707,-0.32,-0.02,0.34,0.46
1.0599780082702637,-0.33,-0.09,0.45,0.56
1.0700490474700928,-0.35,-0.11,0.49,0.61
1.0798449516296387,-0.34,-0.13,0.53,0.64
1.0903501510620117,-0.28,-0.17,0.57,0.65
1.1005611419677734,-0.27,-0.15,0.62,0.69
1.1106491088867188,-0.26,-0.08,0.59,0.64
1.1394438743591309,-0.18,-0.03,0.53,0.56
1.1422829627990723,-0.12,0.0,0.47,0.48
1.1446681022644043,-0.09,0.02,0.42,0.43
1.1531460285186768,-0.05,-0.03,0.34,0.34
1.1598381996154785,-0.1,-0.05,0.28,0.3
1.1698040962219238,-0.17,-0.07,0.23,0.29
1.1795759201049805,-0.23,-0.11,0.2,0.32
1.1902570724487305,-0.26,-0.13,0.16,0.33
1.200057029724121,-0.25,-0.15,0.11,0.31
1.2100481986999512,-0.21,-0.16,0.09,0.27
1.2383570671081543,-0.18,-0.11,0.05,0.21
1.2411141395568848,-0.12,-0.07,-0.02,0.14
1.2434520721435547,-0.09,-0.05,-0.1,0.14
1.2529170513153076,-0.05,-0.03,-0.18,0.18
1.2588319778442383,-0.03,-0.03,-0.23,0.23
1.2689871788024902,-0.03,-0.04,-0.29,0.29
1.2786040306091309,-0.02,-0.04,-0.3,0.3
1.2892351150512695,-0.01,-0.05,-0.26,0.26
1.2992420196533203,0.0,-0.06,-0.26,0.26
1.3093409538269043,0.01,-0.06,-0.21,0.21
1.3386049270629883,0.0,-0.06,-0.17,0.18
1.3413782119750977,-0.03,-0.03,-0.19,0.19
1.3437230587005615,-0.09,0.0,-0.23,0.24
1.3531560897827148,-0.1,0.02,-0.27,0.28
1.358388900756836,-0.1,0.03,-0.27,0.28
1.3683481216430664,-0.09,0.04,-0.28,0.29
1.3786249160766602,-0.05,0.03,-0.29,0.29
1.389172077178955,-0.02,0.03,-0.23,0.23
1.3991060256958008,0.01,0.04,-0.16,0.16
1.4087681770324707,0.0,0.03,-0.1,0.1
1.4379310607910156,-0.08,0.09,-0.08,0.14
1.4408111572265625,-0.12,0.11,-0.09,0.18
1.4431891441345215,-0.09,0.06,-0.11,0.15
1.453489065170288,-0.07,0.03,-0.16,0.17
1.457813024520874,-0.08,0.03,-0.2,0.21
1.4678280353546143,-0.09,0.08,-0.19,0.22
1.4776639938354492,-0.07,0.12,-0.16,0.21
1.4884610176086426,-0.02,0.1,-0.13,0.16
1.4983019828796387,0.01,0.08,-0.07,0.1
1.5088870525360107,-0.02,0.09,0.01,0.09
1.5378320217132568,-0.02,0.04,0.06,0.07
1.5405759811401367,0.0,-0.02,0.12,0.12
1.5428118705749512,-0.01,-0.02,0.17,0.17
1.5528621673583984,-0.01,-0.02,0.21,0.21
1.557197093963623,-0.01,-0.05,0.23,0.23
1.567385196685791,-0.02,-0.06,0.22,0.22
1.5771970748901367,-0.02,-0.07,0.2,0.21
1.5881309509277344,0.01,-0.04,0.16,0.16
1.5984292030334473,0.04,-0.02,0.13,0.13
1.6076931953430176,0.07,0.01,0.1,0.12
1.6372270584106445,0.08,0.04,0.09,0.12
1.6398859024047852,0.11,0.02,0.07,0.13
1.6422619819641113,0.09,-0.02,0.06,0.11
1.6531171798706055,0.03,-0.04,0.08,0.09
1.6566340923309326,-0.04,-0.04,0.09,0.1
1.666666030883789,-0.07,-0.04,0.05,0.09
1.6766891479492188,-0.09,-0.07,0.03,0.11
1.6877620220184326,-0.1,-0.06,0.04,0.12
1.6973628997802734,-0.08,-0.07,-0.01,0.1
1.7070190906524658,-0.08,-0.1,-0.02,0.12
1.7374720573425293,-0.11,-0.09,0.0,0.14
1.7401561737060547,-0.12,-0.1,0.0,0.15
1.7423059940338135,-0.13,-0.1,-0.01,0.16
1.7533001899719238,-0.13,-0.09,-0.03,0.16
1.7563161849975586,-0.12,-0.1,-0.08,0.17
1.7666070461273193,-0.09,-0.09,-0.09,0.15
1.7764880657196045,-0.07,-0.11,-0.1,0.16
1.7870612144470215,-0.05,-0.12,-0.14,0.19
1.7969279289245605,-0.03,-0.1,-0.14,0.17
1.8069729804992676,0.02,-0.09,-0.12,0.15
1.8365259170532227,0.05,-0.1,-0.09,0.14
1.8393669128417969,0.03,-0.12,-0.03,0.12
1.8417320251464844,0.0,-0.15,0.05,0.15
1.8537940979003906,-0.03,-0.15,0.08,0.17
1.8560791015625,-0.07,-0.14,0.07,0.17
1.8656649589538574,-0.12,-0.15,0.06,0.2
1.875859022140503,-0.14,-0.16,0.06,0.22
1.8859610557556152,-0.18,-0.14,0.03,0.23
1.8965349197387695,-0.19,-0.14,-0.01,0.23
1.9062950611114502,-0.17,-0.19,0.0,0.25
1.9370641708374023,-0.23,-0.21,0.05,0.31
1.9399139881134033,-0.34,-0.14,0.1,0.38
1.9422760009765625,-0.4,-0.09,0.13,0.43
1.953688144683838,-0.39,-0.04,0.15,0.41
1.9559788703918457,-0.27,-0.04,0.17,0.32
1.9659628868103027,-0.12,-0.09,0.17,0.22
1.9754080772399902,-0.06,-0.09,0.2,0.22
1.985219955444336,-0.09,-0.07,0.23,0.25
1.995199203491211,-0.12,-0.08,0.23,0.27
2.0055599212646484,-0.11,-0.11,0.22,0.26
2.033940076828003,-0.09,-0.11,0.17,0.22
2.0362050533294678,-0.03,-0.11,0.11,0.15
2.03835391998291,0.05,-0.12,0.08,0.15
2.0535590648651123,0.07,-0.1,0.07,0.14
2.0555319786071777,0.07,-0.06,0.04,0.1
2.0648300647735596,0.05,-0.05,0.02,0.07
2.0746841430664062,0.04,-0.01,0.01,0.04
2.0846781730651855,0.03,0.0,-0.06,0.06
2.0947751998901367,0.04,0.01,-0.12,0.12
2.104720115661621,0.03,0.01,-0.22,0.22
2.1346001625061035,-0.02,0.03,-0.31,0.31
2.137237071990967,-0.07,0.07,-0.4,0.41
2.1394472122192383,-0.05,0.09,-0.46,0.47
2.153510093688965,-0.01,0.09,-0.46,0.46
2.155609130859375,-0.01,0.12,-0.4,0.41
2.1641159057617188,-0.04,0.17,-0.34,0.38
2.1746270656585693,-0.04,0.2,-0.25,0.32
2.18408203125,-0.04,0.22,-0.17,0.28
2.194559097290039,-0.05,0.26,-0.16,0.3
2.204881191253662,-0.02,0.29,-0.15,0.32
2.2347331047058105,-0.01,0.32,-0.17,0.36
2.237328052520752,0.01,0.38,-0.2,0.42
2.2398390769958496,0.03,0.39,-0.24,0.45
2.2542600631713867,-0.01,0.43,-0.27,0.5
2.256618022918701,-0.09,0.51,-0.32,0.6
2.2633719444274902,-0.19,0.66,-0.42,0.8
2.2741570472717285,-0.33,0.88,-0.55,1.08
2.2840209007263184,-0.42,1.11,-0.71,1.38
2.2937490940093994,-0.45,1.35,-0.84,1.65
2.3037309646606445,-0.43,1.58,-0.9,1.86
2.333508014678955,-0.31,1.71,-0.78,1.9
2.3359031677246094,-0.09,1.77,-0.48,1.83
2.338027000427246,0.16,1.77,-0.12,1.78
2.3538410663604736,0.33,1.74,0.18,1.78
2.3558921813964844,0.38,1.68,0.38,1.76
2.3628358840942383,0.5,1.65,0.41,1.77
2.3735580444335938,0.66,1.65,0.31,1.8
2.38370418548584,0.87,1.67,-0.02,1.88
2.3928589820861816,0.97,1.79,-0.55,2.1
2.40290904045105,0.88,2.16,-1.05,2.55
2.433253049850464,0.79,2.58,-1.41,3.04
2.43560791015625,0.9,2.78,-1.66,3.36
2.4377501010894775,1.2,2.72,-1.79,3.47
2.442282199859619,1.41,2.55,-1.85,3.45
2.4527430534362793,1.56,2.3,-1.74,3.27
2.4624719619750977,1.65,2.08,-1.52,3.05
2.4728851318359375,1.59,1.88,-1.23,2.75
2.4826300144195557,1.4,1.71,-0.89,2.38
2.4926910400390625,1.2,1.61,-0.6,2.09
2.502354145050049,1.03,1.36,-0.39,1.75
2.531270980834961,0.8,1.12,-0.25,1.39
2.533681869506836,0.46,1.04,-0.14,1.14
2.535738945007324,0.2,0.94,-0.07,0.96
2.5419111251831055,0.04,0.72,-0.04,0.72
2.5518441200256348,-0.15,0.61,-0.17,0.65
2.562000036239624,-0.41,0.6,-0.34,0.8
2.572359085083008,-0.62,0.68,-0.51,1.05
2.5823941230773926,-0.8,0.84,-0.76,1.38
2.5918569564819336,-0.89,1.09,-0.97,1.7
2.601830005645752,-0.83,1.33,-1.16,1.95
2.631542205810547,-0.62,1.47,-1.31,2.06
2.6340410709381104,-0.31,1.62,-1.35,2.13
2.636046886444092,0.0,1.74,-1.32,2.18
2.6412549018859863,0.28,1.89,-1.28,2.29
2.6512551307678223,0.52,2.05,-1.34,2.5
2.6613731384277344,0.69,2.25,-1.45,2.76
2.671971082687378,0.77,2.46,-1.53,2.99
2.6814141273498535,0.86,2.62,-1.5,3.13
2.691865921020508,0.86,2.75,-1.45,3.22
2.7013092041015625,0.9,2.92,-1.5,3.4
2.7300240993499756,1.14,2.97,-1.73,3.62
2.732344150543213,1.43,2.99,-2.05,3.89
2.7346370220184326,1.58,3.01,-2.27,4.08
2.7410778999328613,1.76,2.92,-2.37,4.15
2.750865936279297,2.02,2.73,-2.26,4.07
2.760683059692383,2.16,2.55,-2.14,3.96
2.7712490558624268,2.22,2.26,-1.96,3.72
2.781332015991211,2.48,2.09,-1.15,3.44
2.7908849716186523,2.91,1.67,-0.9,3.47
2.8011910915374756,3.47,1.66,-1.14,4.01
2.8297250270843506,3.6,1.93,-1.71,4.42
2.8321518898010254,3.18,1.68,-2.82,4.57
2.8344709873199463,3.3,1.42,-3.91,5.3
2.840175151824951,3.34,1.58,-4.05,5.48
2.850290060043335,3.1,2.19,-3.41,5.1
2.860365867614746,2.42,2.99,-3.15,4.97
2.8704190254211426,1.78,3.37,-3.08,4.9
2.8805840015411377,1.17,3.21,-1.79,3.85
2.8905930519104004,0.22,3.38,-0.05,3.38
2.900379180908203,-0.66,5.52,-0.33,5.56
2.9295380115509033,-0.41,7.82,1.38,7.95
2.931942939758301,1.92,5.47,3.77,6.91
2.9341349601745605,2.21,4.75,4.06,6.62
2.9398140907287598,1.8,4.77,3.87,6.4
2.953896999359131,2.03,4.21,3.29,5.71
2.9599409103393555,1.28,4.11,2.24,4.85
2.9701390266418457,0.3,3.61,1.53,3.93
2.9802141189575195,-0.92,3.26,0.97,3.52
2.9898149967193604,-2.66,3.79,0.92,4.72
2.9997119903564453,-3.58,4.7,2.2,6.3
3.029292106628418,-3.24,5.49,3.28,7.16
3.031930923461914,-1.84,6.24,3.67,7.46
3.0342679023742676,0.33,6.11,3.15,6.88
3.03957200050354,1.82,5.17,2.38,5.97
3.05246901512146,1.24,4.33,2.21,5.01
3.0598812103271484,-0.6,3.51,3.54,5.02
3.069756031036377,-2.56,2.89,5.62,6.81
3.0795609951019287,-4.08,2.85,7.44,8.95
3.089569091796875,-5.23,3.69,8.55,10.68
3.100036144256592,-5.19,4.56,8.26,10.76
3.127953052520752,-3.08,4.39,6.88,8.72
3.1306610107421875,-0.64,3.91,5.11,6.46
3.1341490745544434,0.64,3.62,4.23,5.6
3.138918876647949,0.44,3.56,4.85,6.03
3.151823043823242,-1.14,3.65,6.13,7.22
3.158919095993042,-2.86,3.58,7.74,8.99
3.1688151359558105,-4.05,3.58,8.92,10.43
3.178989887237549,-4.24,3.3,8.95,10.43
3.1896839141845703,-3.56,2.84,8.01,9.21
3.199571132659912,-2.71,2.88,6.5,7.6
3.2296600341796875,-1.31,2.9,4.63,5.61
3.2321839332580566,0.47,2.9,2.77,4.03
3.234665870666504,1.76,3.09,1.14,3.73
3.238440990447998,2.32,3.45,-0.08,4.15
3.251194953918457,2.29,3.92,-0.94,4.63
3.2584171295166016,2.04,4.11,-1.38,4.79
3.2685399055480957,2.44,3.33,-1.89,4.54
3.2790629863739014,3.36,1.92,-2.65,4.69
3.289201021194458,4.32,0.2,-3.4,5.5
3.298859119415283,4.61,-1.28,-4.04,6.26
3.329319953918457,4.12,-2.04,-4.39,6.35
3.332022190093994,3.46,-2.59,-4.32,6.11
3.3346471786499023,2.55,-3.1,-4.35,5.91
3.3382182121276855,2.01,-3.5,-4.51,6.05
3.3514130115509033,1.86,-4.0,-4.63,6.39
3.357908010482788,1.93,-4.63,-5.0,7.08
3.367948055267334,2.67,-5.36,-5.22,7.94
3.377786159515381,2.43,-4.84,-5.43,7.66
3.388503074645996,1.83,-3.94,-5.41,6.93
3.3987910747528076,2.59,-4.42,-5.34,7.4
3.428865909576416,3.69,-5.66,-5.37,8.63
3.431633949279785,4.16,-6.1,-5.26,9.06
3.4342241287231445,3.81,-5.97,-5.09,8.72
3.437075138092041,3.07,-5.8,-4.76,8.1
3.451356887817383,1.67,-5.12,-4.09,6.76
3.4573709964752197,0.43,-3.87,-3.18,5.02
3.4678049087524414,-0.12,-2.76,-2.34,3.62
3.477510929107666,-0.02,-1.47,-2.01,2.49
3.4871668815612793,0.55,-0.49,-1.83,1.97
3.497749090194702,0.62,1.18,-1.57,2.05
3.5279622077941895,0.23,3.41,-1.34,3.67
3.5306880474090576,0.07,4.77,-1.05,4.88
3.533411979675293,0.11,4.79,-1.03,4.9
3.5366392135620117,-0.43,4.68,-1.13,4.83
3.546825885772705,-1.62,4.66,-0.83,5.0
3.556950092315674,-3.12,4.64,0.04,5.59
3.567209005355835,-4.78,4.99,1.25,7.02
3.577138900756836,-5.65,5.1,2.36,7.96
3.5866241455078125,-5.8,5.3,3.23,8.49
3.5978541374206543,-5.08,5.66,3.47,8.35
3.6263298988342285,-3.6,5.77,2.79,7.35
3.6287589073181152,-2.58,6.11,1.83,6.88
3.6310691833496094,-2.33,6.38,0.69,6.82
3.6362171173095703,-2.49,6.2,-0.77,6.72
3.6462149620056152,-2.81,5.47,-2.38,6.59
3.656291961669922,-3.07,4.53,-3.68,6.59
3.666694164276123,-2.85,3.52,-4.26,6.21
3.676486015319824,-1.94,3.24,-3.61,5.22
3.6861090660095215,-0.73,3.63,-2.9,4.7
3.695965051651001,-1.4,5.93,-1.16,6.2
3.7269039154052734,-1.2,7.01,1.15,7.2
3.729569911956787,-2.5,5.58,4.31,7.48
3.731790065765381,-5.95,5.08,7.57,10.88
3.7367801666259766,-8.7,4.82,10.22,14.26
3.7462148666381836,-9.31,4.43,10.98,15.06
3.7560369968414307,-7.98,4.84,9.8,13.53
3.7668352127075195,-5.16,5.24,7.9,10.79
3.775597095489502,-2.47,5.5,6.32,8.73
3.7858309745788574,-0.04,4.91,4.81,6.87
3.795769214630127,0.8,4.11,3.72,5.6
3.825331211090088,-0.49,4.47,3.53,5.71
3.827903985977173,-1.81,5.42,3.9,6.91
3.830009937286377,-2.03,5.93,4.06,7.46
3.8363680839538574,-1.5,5.62,3.84,6.96
3.8451640605926514,-0.53,4.54,3.63,5.83
3.855025053024292,1.21,2.61,3.13,4.25
3.8651161193847656,3.9,-0.03,2.49,4.62
3.8757801055908203,4.65,-1.87,2.33,5.52
3.8850631713867188,3.31,-2.86,2.58,5.07
3.8956480026245117,1.09,-4.18,2.39,4.93
3.924194097518921,-0.65,-5.21,1.29,5.4
3.926630973815918,-1.57,-5.65,-1.06,5.95
3.928745985031128,-0.47,-5.83,-3.84,6.99
3.939596176147461,-0.2,-5.69,-6.65,8.75
3.944550037384033,1.39,-5.36,-8.39,10.05
3.954975128173828,4.41,-6.34,-8.8,11.7
3.964959144592285,6.9,-7.69,-9.3,13.9
3.974788188934326,8.58,-8.54,-9.37,15.3
3.9848170280456543,8.56,-8.78,-9.05,15.24
3.994709014892578,6.73,-8.27,-6.93,12.71
4.024868011474609,3.82,-6.89,-2.29,8.2
4.027378082275391,4.86,-8.7,-1.93,10.15
4.029496192932129,6.12,-11.35,0.01,12.89
4.036837100982666,6.01,-9.47,1.62,11.33
4.041311025619507,5.96,-5.9,3.45,9.06
4.05158805847168,7.47,-3.48,4.96,9.61
4.061604976654053,7.81,-1.32,5.9,9.87
4.071712017059326,5.76,1.28,6.25,8.59
4.081654071807861,3.19,3.79,5.5,7.4
4.091411113739014,1.69,4.16,3.24,5.53
4.101639032363892,-0.09,2.87,0.31,2.88
4.124129056930542,-3.21,3.38,-0.87,4.74
4.126523017883301,-5.98,4.66,-0.22,7.58
4.130799055099487,-6.91,5.1,1.09,8.65
4.141067028045654,-6.5,4.89,2.58,8.53
4.150732040405273,-5.3,4.44,3.52,7.75
4.1608991622924805,-4.07,3.67,3.46,6.48
4.17120099067688,-4.13,3.3,3.28,6.22
4.18120813369751,-5.38,3.66,3.07,7.19
4.190804958343506,-6.94,4.31,2.24,8.47
4.201068878173828,-8.14,4.87,1.15,9.55
4.224076986312866,-8.57,5.65,0.15,10.26
4.2264180183410645,-7.63,5.41,-0.84,9.39
4.230265140533447,-5.84,4.43,-1.51,7.48
4.240850925445557,-3.63,3.75,-1.33,5.38
4.250246047973633,-1.52,3.71,-0.4,4.02
4.260561943054199,-0.21,3.69,1.18,3.87
4.270535945892334,-0.14,3.09,3.08,4.36
4.280539035797119,-1.63,2.47,5.15,5.93
4.2905778884887695,-4.09,2.15,7.32,8.65
4.300200939178467,-6.06,2.24,8.62,10.77
4.322601079940796,-6.66,2.38,7.98,10.66
4.325001001358032,-6.1,2.09,5.52,8.48
4.329763889312744,-4.33,1.83,2.43,5.29
4.340053081512451,-1.63,0.91,-0.58,1.95
4.349747180938721,0.63,0.6,-2.73,2.86
4.359745025634766,1.71,0.86,-3.71,4.17
4.370146036148071,0.87,2.18,-2.67,3.55
4.380039215087891,-0.41,5.2,-0.29,5.22
4.38972806930542,1.19,5.54,0.91,5.73
4.399846076965332,4.62,1.81,0.31,4.97
4.422774076461792,5.75,-0.59,-0.58,5.8
4.425132989883423,3.78,1.08,-0.74,4.0
4.42923903465271,1.14,4.27,-0.46,4.44
4.439294099807739,0.93,4.03,-1.07,4.27
4.449626922607422,1.1,2.63,-2.23,3.61
4.459645986557007,0.57,1.0,-3.04,3.25
4.469259023666382,0.16,-1.2,-3.65,3.84
4.479171991348267,0.03,-2.86,-3.93,4.86
4.489454030990601,0.24,-3.66,-3.52,5.08
4.499428987503052,0.6,-3.83,-2.53,4.62
4.523513078689575,0.65,-3.65,-1.53,4.01
4.525856971740723,0.56,-3.81,-0.59,3.89
4.528696060180664,1.39,-5.22,0.43,5.41
4.539290904998779,2.22,-6.64,1.22,7.1
4.549136161804199,3.11,-7.65,1.55,8.4
4.5593671798706055,3.65,-7.45,1.49,8.42
4.568964004516602,4.28,-6.38,1.42,7.81
4.579041004180908,5.84,-6.47,1.15,8.79
4.59012508392334,7.4,-7.41,0.49,10.48
4.621645927429199,8.24,-8.09,-0.17,11.54
4.623934984207153,7.75,-8.12,-0.17,11.22
4.6261560916900635,5.96,-7.6,0.52,9.67
4.6392412185668945,3.51,-7.05,1.78,8.07
4.641373157501221,0.7,-5.73,3.32,6.65
4.649701118469238,-2.22,-3.42,4.83,6.32
4.660001993179321,-4.61,-0.96,5.42,7.17
4.6696062088012695,-5.68,0.92,4.17,7.1
4.6798930168151855,-5.48,1.36,1.45,5.82
4.689825057983398,-5.49,2.39,-1.36,6.14
4.7236151695251465,-5.18,4.33,-3.24,7.48
4.725957870483398,-2.93,4.9,-4.21,7.09
4.728223085403442,-1.72,3.92,-5.32,6.82
4.7393879890441895,-1.3,0.56,-5.2,5.38
4.741491079330444,-2.25,-2.02,-4.06,5.06
4.7494330406188965,-4.68,-2.65,-2.34,5.86
4.759238004684448,-7.52,-2.14,-0.39,7.82
4.769412994384766,-8.98,-1.13,0.76,9.08
4.779391050338745,-7.3,0.07,1.21,7.39
4.789057016372681,-4.47,0.34,0.19,4.48
4.820384979248047,-2.17,0.54,-0.54,2.3
4.822515964508057,0.25,0.71,0.25,0.79
4.824667930603027,1.61,-1.14,0.72,2.1
4.839721202850342,0.24,-1.94,-0.11,1.95
4.841871023178101,-2.92,-0.28,-1.29,3.2
4.848677158355713,-5.68,1.95,-2.61,6.54
4.859001159667969,-8.56,6.53,-3.81,11.42
4.868424892425537,-9.19,7.81,-4.47,12.86
4.879096984863281,-7.4,5.93,-3.99,10.28
4.8885931968688965,-6.35,6.06,-2.01,9.0
4.922077178955078,-6.66,7.68,0.75,10.19
4.924251079559326,-7.41,9.02,4.19,12.4
4.926413059234619,-7.21,7.97,6.99,12.82
4.939172029495239,-6.05,4.71,8.3,11.29
4.941090106964111,-4.71,1.09,8.63,9.89
4.947813987731934,-4.18,-0.49,8.82,9.77
4.9584619998931885,-4.58,1.22,8.55,9.77
4.968084096908569,-4.27,4.01,6.21,8.53
4.978071212768555,-1.17,3.18,1.36,3.65
4.987981081008911,3.07,-0.15,-3.32,4.52
5.020456075668335,4.2,-1.5,-5.12,6.79
5.022614002227783,0.4,2.58,-3.91,4.7
5.02469801902771,-4.22,6.64,-1.01,7.93
5.027505874633789,-5.2,5.31,-0.23,7.43
5.0374531745910645,-3.47,2.32,-0.35,4.18
5.04780387878418,-1.61,0.37,-0.12,1.65
5.05777907371521,0.07,-1.76,-0.5,1.83
5.067482948303223,1.66,-3.58,-0.96,4.06
5.077670097351074,3.08,-4.37,-1.21,5.48
5.087510108947754,4.66,-4.62,-0.86,6.61
5.119922161102295,4.98,-4.47,1.4,6.83
5.12208890914917,3.82,-4.48,4.48,7.39
5.124202013015747,2.4,-4.76,7.62,9.29
5.126675128936768,0.37,-3.45,9.87,10.46
5.137340068817139,-0.39,-1.6,10.16,10.29
5.146790981292725,1.71,-1.17,6.84,7.14
5.157515048980713,5.79,-2.28,1.19,6.33
5.166985034942627,9.48,-3.58,-3.75,10.8
5.177119016647339,11.68,-5.32,-6.69,14.47
5.187229156494141,12.5,-8.09,-7.08,16.48
5.218301057815552,12.14,-11.9,-6.12,18.06
5.220360994338989,8.81,-12.73,-3.75,15.92
5.222445964813232,3.49,-10.27,-0.6,10.86
5.226166009902954,-1.0,-8.11,1.5,8.3
5.236310958862305,-2.68,-7.7,1.89,8.36
5.246293067932129,-2.0,-7.8,0.97,8.11
5.256414890289307,-1.07,-6.05,-0.58,6.17
5.2670300006866455,0.74,-3.59,-3.23,4.88
5.276509046554565,4.86,-3.65,-6.07,8.58
5.2866082191467285,6.4,-2.72,-7.62,10.31
5.31937313079834,4.65,-0.41,-6.7,8.16
5.3215179443359375,1.96,1.46,-2.95,3.83
5.323648929595947,0.65,0.0,0.45,0.79
5.3262128829956055,-0.37,-2.32,2.83,3.67
5.335851192474365,-1.56,-1.99,4.94,5.54
5.345757007598877,-2.13,-1.09,5.42,5.92
5.356126070022583,-1.43,-0.63,3.91,4.21
5.3662450313568115,-0.53,0.52,1.68,1.83
5.375854015350342,0.61,1.72,-0.6,1.92
5.385869979858398,1.54,2.57,-2.34,3.8
5.418888092041016,1.55,3.47,-3.1,4.9
5.421074867248535,0.84,4.21,-3.11,5.3
5.423250198364258,-0.64,5.29,-2.74,5.99
5.425540924072266,-3.1,7.54,-2.03,8.4
5.4357380867004395,-5.44,9.87,-1.38,11.35
5.4455389976501465,-6.08,9.84,-1.47,11.65
5.4552412033081055,-6.2,9.14,-1.3,11.12
5.465072154998779,-6.75,8.56,-0.23,10.9
5.475605010986328,-7.72,7.88,1.2,11.09
5.485218048095703,-8.96,7.62,2.38,12.0
5.51811408996582,-9.9,7.38,2.63,12.62
5.520133018493652,-10.25,6.4,1.79,12.21
5.5221710205078125,-10.04,4.6,0.51,11.05
5.525195121765137,-9.55,2.54,-0.34,9.88
5.534954071044922,-8.78,0.94,-0.32,8.83
5.545077085494995,-7.28,-0.51,0.67,7.32
5.5547850131988525,-7.21,0.2,2.7,7.7
5.564887046813965,-8.55,3.42,4.43,10.21
5.5748090744018555,-5.89,2.11,2.76,6.83
5.584809064865112,1.06,-2.69,-1.16,3.11
5.619318962097168,5.83,-3.46,-3.91,7.82
5.621457099914551,8.28,-2.29,-4.43,9.66
5.6234869956970215,7.94,-1.12,-3.23,8.64
5.6259729862213135,3.49,1.91,0.43,4.0
5.634422063827515,0.9,0.78,4.59,4.74
5.644362926483154,0.34,-3.13,5.35,6.2
5.654563903808594,0.07,-5.61,5.4,7.78
5.664326190948486,-0.85,-5.11,5.74,7.73
5.674432992935181,-2.06,-2.76,5.43,6.43
5.684256076812744,-1.95,-0.91,4.59,5.06
5.718996047973633,-0.42,-0.45,3.67,3.72
5.721132040023804,1.24,-1.07,3.02,3.43
5.7231340408325195,1.97,-1.47,2.98,3.86
5.725579023361206,2.06,-1.73,3.14,4.13
5.733500957489014,2.43,-2.69,2.49,4.39
5.74400520324707,3.44,-4.51,0.64,5.7
5.753623008728027,4.53,-6.5,-2.07,8.18
5.764075994491577,5.59,-7.96,-4.69,10.79
5.773909091949463,6.15,-8.33,-5.73,11.83
5.783941984176636,6.64,-9.15,-5.39,12.52
5.818718910217285,7.44,-11.64,-5.04,14.7
5.820855140686035,6.43,-12.01,-3.95,14.18
5.8229570388793945,3.22,-8.88,-1.27,9.53
5.825525999069214,2.38,-8.66,1.0,9.03
5.833280086517334,3.64,-10.95,2.23,11.75
5.843609094619751,4.02,-11.54,2.85,12.54
5.85304594039917,3.42,-10.52,3.08,11.48
5.862948894500732,3.09,-9.93,2.44,10.68
5.87390398979187,3.38,-9.34,0.3,9.93
5.883460998535156,3.66,-8.24,-2.36,9.32
5.916823863983154,2.56,-5.04,-2.75,6.28
5.918880939483643,1.13,-1.13,-1.87,2.45
5.920628070831299,-0.21,1.39,-1.21,1.85
5.923087120056152,-1.79,3.26,0.18,3.72
5.932764053344727,-2.62,3.38,2.22,4.81
5.942750930786133,-2.05,1.78,3.62,4.52
5.9530029296875,-0.76,0.36,3.74,3.83
5.962884902954102,0.31,-0.26,3.01,3.03
5.972478866577148,0.35,0.15,2.05,2.08
5.983342170715332,-0.39,1.4,1.07,1.8
6.018486976623535,-1.34,2.48,0.15,2.82
6.020662069320679,-2.34,3.12,-0.33,3.91
6.022701025009155,-3.38,3.52,-0.19,4.88
6.025269031524658,-4.24,3.58,0.13,5.55
6.031950950622559,-4.75,3.44,0.66,5.9
6.042548179626465,-5.35,3.93,1.3,6.76
6.052021026611328,-5.63,4.46,1.66,7.37
6.062150955200195,-5.18,4.72,1.5,7.16
6.072449207305908,-3.87,4.62,0.6,6.05
6.082482099533081,-2.14,4.8,-0.79,5.31
6.117871999740601,-0.69,5.75,-1.93,6.1
6.120004177093506,0.04,7.31,-2.32,7.66
6.122097969055176,-0.13,8.77,-2.33,9.07
6.1245880126953125,-0.41,8.97,-2.02,9.2
6.131708145141602,-0.86,8.81,-1.34,8.95
6.141877174377441,-1.58,8.54,-1.13,8.75
6.151489019393921,-1.95,7.58,-1.29,7.93
6.161663055419922,-1.86,5.88,-1.37,6.31
6.171549081802368,-2.54,5.7,-0.95,6.31
6.181910991668701,-3.22,5.13,-0.06,6.05
6.218078136444092,-3.79,3.82,0.32,5.39
6.220188140869141,-4.77,2.68,-0.18,5.47
6.222223997116089,-5.15,1.56,-1.09,5.49
6.224800109863281,-3.41,-0.46,-2.0,3.97
6.231141090393066,-0.58,-2.46,-2.29,3.41
6.241879940032959,1.02,-2.85,-1.32,3.3
6.250797986984253,-0.06,-0.34,0.08,0.35
6.261515140533447,-3.4,4.55,2.43,6.17
6.271182060241699,-4.23,4.47,5.47,8.23
6.281446933746338,-3.18,1.15,6.99,7.76
6.317355155944824,-2.44,-1.28,7.99,8.45
6.319456100463867,-1.84,-3.21,8.39,9.16
6.321230888366699,-1.39,-4.25,7.76,8.95
6.323758125305176,-1.29,-4.16,6.87,8.13
6.330358982086182,-1.2,-3.37,5.91,6.9
6.340883016586304,-0.54,-2.93,4.52,5.41
6.350224018096924,0.88,-3.42,3.07,4.67
6.360828876495361,1.89,-3.84,1.93,4.69
6.370852947235107,2.49,-4.05,1.07,4.87
6.3804121017456055,3.26,-4.86,0.46,5.87
6.418103218078613,4.24,-6.22,-0.2,7.53
6.420473098754883,5.07,-7.17,-1.04,8.84
6.422237873077393,5.97,-8.61,-1.61,10.6
6.4378252029418945,5.62,-9.27,-1.68,10.96
6.439754009246826,3.88,-8.51,-1.22,9.43
6.442270994186401,2.6,-7.87,0.1,8.28
6.449815034866333,2.89,-8.57,1.58,9.18
6.4598610401153564,3.86,-9.85,2.36,10.83
6.47009801864624,4.33,-10.33,2.41,11.45
6.4801390171051025,4.25,-10.23,2.0,11.25
6.515625,4.13,-9.69,1.32,10.61
6.517857074737549,4.04,-8.79,1.05,9.73
6.519757032394409,4.49,-7.78,0.73,9.01
6.5222649574279785,4.46,-5.82,-0.28,7.33
6.529270172119141,2.98,-1.97,-0.92,3.68
6.539412975311279,1.33,2.08,-0.82,2.6
6.549775123596191,0.54,4.84,-0.86,4.94
6.559838056564331,0.92,4.93,-0.97,5.1
6.569552898406982,-0.01,4.5,-0.47,4.52
6.579990863800049,-1.37,3.86,1.16,4.25
6.617254018783569,-1.71,2.22,1.96,3.41
6.619487047195435,-1.55,1.15,1.86,2.68
6.6212921142578125,-1.27,1.85,1.79,2.87
6.640324115753174,-0.5,3.4,1.54,3.76
6.642203092575073,0.38,5.06,0.97,5.16
6.64483118057251,0.8,6.43,1.41,6.63
6.649041175842285,0.69,7.35,2.75,7.87
6.658789157867432,0.04,7.75,3.56,8.52
6.669291973114014,-1.21,8.01,3.06,8.65
6.6791229248046875,-2.76,8.24,1.15,8.76
6.715923070907593,-4.11,9.22,-1.14,10.15
6.718147039413452,-3.87,9.6,-3.12,10.81
6.719954013824463,-2.66,9.92,-4.32,11.14
6.7224249839782715,-1.54,10.89,-4.01,11.7
6.728374004364014,-1.12,11.98,-2.47,12.28
6.738325119018555,-1.46,12.12,-0.05,12.2
6.748072147369385,-2.56,10.89,2.44,11.44
6.75921106338501,-4.24,8.76,4.16,10.58
6.768342971801758,-5.91,6.27,4.89,9.9
6.779044151306152,-6.85,3.47,4.87,9.09
6.816518068313599,-7.18,0.94,4.91,8.74
6.818711996078491,-6.94,-0.64,5.63,8.95
6.820499897003174,-6.04,-1.05,6.35,8.82
6.822873115539551,-3.99,-1.42,5.89,7.25
6.82782506942749,-0.81,-2.4,3.55,4.36
6.837798118591309,2.11,-2.72,0.05,3.44
6.847892999649048,2.04,0.78,-2.99,3.7
6.858099937438965,1.71,3.38,-3.88,5.42
6.867706060409546,2.56,1.77,-4.02,5.08
6.8780388832092285,1.85,0.84,-3.25,3.83
6.916598081588745,1.2,-0.47,-1.55,2.01
6.918970108032227,1.35,-2.74,-0.52,3.09
6.920773983001709,1.59,-4.59,-0.37,4.87
6.923184871673584,1.22,-5.38,-1.04,5.61
6.927492141723633,0.29,-5.05,-2.23,5.52
6.937129020690918,-0.33,-4.12,-3.04,5.13
6.947458028793335,0.11,-3.4,-3.05,4.56
6.957691192626953,1.05,-3.42,-2.61,4.42
6.967470169067383,1.82,-4.08,-1.78,4.8
6.977344989776611,2.34,-5.73,-0.89,6.25
7.016407012939453,2.32,-7.14,-0.31,7.51
7.018606185913086,2.38,-8.18,-0.43,8.53
7.020388126373291,2.81,-8.85,-1.12,9.35
7.022892951965332,3.31,-8.8,-2.36,9.69
7.026755094528198,3.36,-8.07,-3.4,9.37
7.036820888519287,2.68,-6.91,-3.87,8.36
7.046842098236084,1.71,-6.5,-3.14,7.41
7.057368993759155,0.75,-7.11,-1.31,7.26
7.066984176635742,-0.19,-8.18,1.31,8.28
7.0771729946136475,-1.1,-8.84,4.39,9.93
7.115898132324219,-1.98,-8.85,6.5,11.15
7.119430065155029,-2.34,-8.58,7.31,11.51
7.1212029457092285,-1.88,-8.19,7.03,10.95
7.123565196990967,-1.45,-7.01,6.04,9.36
7.126242160797119,-0.17,-5.74,3.74,6.85
7.136102199554443,1.8,-4.92,0.34,5.24
7.145954132080078,2.49,-2.54,-2.15,4.15
7.156583070755005,2.05,1.48,-3.25,4.11
7.166586875915527,1.85,4.72,-3.62,6.22
7.176347017288208,2.6,5.28,-3.18,6.68
7.216821193695068,2.76,4.69,-1.81,5.73
7.219027042388916,1.84,4.31,0.15,4.68
7.220794200897217,1.57,2.67,1.38,3.39
7.223128080368042,1.41,1.0,1.9,2.56
7.225890159606934,0.57,0.4,2.55,2.64
7.235651016235352,-0.6,0.57,2.82,2.93
7.246284008026123,-1.49,0.76,2.37,2.9
7.256134986877441,-1.68,0.96,1.39,2.38
7.266576051712036,-1.77,1.33,0.28,2.23
7.275827884674072,-2.43,1.88,-0.34,3.09
7.315563201904297,-3.6,2.33,-0.04,4.28
7.317856073379517,-4.59,2.47,0.85,5.28
7.319730997085571,-5.13,2.66,2.17,6.17
7.322159051895142,-4.95,2.98,3.15,6.58
7.325093030929565,-4.13,3.28,2.65,5.9
7.334982872009277,-3.03,3.97,0.96,5.08
7.345139980316162,-2.34,5.46,-0.97,6.01
7.355647087097168,-1.71,6.67,-2.12,7.2
7.365320205688477,-1.52,7.0,-2.03,7.44
7.375773906707764,-2.28,6.17,-0.62,6.6
7.416095018386841,-3.17,4.2,1.3,5.42
7.418068885803223,-3.72,2.25,2.49,5.01
7.420037031173706,-4.15,0.89,2.3,4.82
7.422607898712158,-4.61,0.38,1.35,4.81
7.4249889850616455,-5.4,1.12,0.12,5.51
7.434482097625732,-6.06,1.97,-0.75,6.41
7.444784164428711,-5.58,1.64,-1.47,5.99
7.454847097396851,-2.76,-0.58,-1.71,3.29
7.465117931365967,0.39,-2.98,-1.71,3.45
7.474801063537598,1.88,-3.02,-1.65,3.92
7.51544713973999,1.43,-0.21,-1.19,1.87
7.5175909996032715,0.5,2.15,-0.47,2.25
7.519573211669922,0.62,1.55,0.16,1.67
7.52208399772644,0.78,0.22,0.29,0.86
7.524406909942627,1.31,-1.44,0.12,1.95
7.534228086471558,1.85,-3.04,-0.02,3.55
7.544316053390503,1.92,-3.8,0.1,4.25
7.554297924041748,1.81,-4.04,0.61,4.46
7.564359188079834,1.83,-4.07,1.28,4.64
7.574321031570435,2.15,-4.14,2.04,5.09
7.6147520542144775,2.55,-4.47,2.99,5.95
7.616866111755371,2.73,-4.71,3.81,6.64
7.618908882141113,2.8,-4.79,4.06,6.87
7.621124029159546,3.01,-4.9,3.51,6.73
7.637389183044434,3.66,-5.05,2.06,6.56
7.639293193817139,4.68,-5.24,-0.2,7.02
7.6434831619262695,5.85,-5.4,-2.64,8.38
7.653767108917236,7.0,-5.57,-4.75,10.12
7.663905143737793,7.01,-4.88,-5.72,10.27
7.673870086669922,6.39,-5.03,-6.11,10.17
7.716008186340332,5.37,-6.05,-5.68,9.88
7.718016147613525,3.11,-4.88,-4.34,7.23
7.720041990280151,1.0,-3.42,-3.0,4.65
7.7224321365356445,0.36,-3.51,-1.75,3.93
7.7247350215911865,0.07,-3.53,-0.42,3.55
7.733394145965576,-0.2,-2.53,1.32,2.86
7.743599891662598,-0.13,-1.64,3.89,4.22
7.753014087677002,0.23,-0.6,5.85,5.88
7.763296127319336,1.65,-0.12,5.89,6.11
7.773359060287476,3.59,-0.33,4.14,5.48
7.815433025360107,4.54,1.85,1.12,5.02
7.8175811767578125,4.48,5.0,-2.3,7.09
7.8193440437316895,5.21,4.42,-4.29,8.06
7.821840047836304,4.56,1.79,-3.58,6.06
7.824214935302734,1.27,0.8,-1.34,2.01
7.8329548835754395,-2.17,0.48,1.09,2.47
7.84257698059082,-3.72,-0.34,2.52,4.5
7.852905988693237,-3.51,-0.26,3.32,4.83
7.862796068191528,-2.45,0.73,4.02,4.76
7.873158931732178,-1.22,1.77,4.87,5.32
7.915727138519287,-0.46,2.55,5.66,6.22
7.917789936065674,-0.44,2.98,5.57,6.33
7.919587135314941,-0.92,3.3,4.33,5.52
7.922041893005371,-1.43,3.3,1.95,4.09
7.924139976501465,-2.27,3.71,-0.62,4.39
7.931824207305908,-3.2,4.63,-2.86,6.31
7.94248104095459,-3.7,5.26,-4.55,7.87
7.9523420333862305,-3.76,5.92,-5.09,8.66
7.9623260498046875,-2.98,5.92,-4.63,8.08
7.971860885620117,-2.09,5.31,-3.59,6.74
8.015832901000977,-2.28,5.64,-2.05,6.41
8.01796817779541,-2.99,5.59,-0.44,6.35
8.019975185394287,-3.84,4.22,0.62,5.73
8.022494077682495,-5.18,2.71,0.94,5.92
8.024842023849487,-6.42,1.66,0.98,6.7
8.029947996139526,-7.06,1.13,1.25,7.25
8.040179014205933,-7.28,1.59,2.09,7.73
8.05023717880249,-6.06,1.63,2.19,6.64
8.06073808670044,-2.18,-1.39,0.7,2.67
8.07010793685913,0.63,-3.21,-1.14,3.46
8.080860137939453,0.85,-1.41,-1.67,2.34
8.116950035095215,-0.73,2.65,-0.21,2.75
8.119122982025146,-1.3,3.59,2.02,4.31
8.120914936065674,-0.96,0.11,3.55,3.67
8.123392105102539,-2.88,-2.32,3.6,5.16
8.12962818145752,-5.21,-3.96,3.04,7.21
8.139581203460693,-6.53,-5.11,2.39,8.62
8.149754047393799,-6.62,-5.34,2.27,8.8
8.160070896148682,-5.36,-4.77,3.16,7.84
8.16955304145813,-2.79,-4.11,4.18,6.49
8.17983603477478,0.72,-4.03,4.89,6.37
8.215764999389648,2.78,-3.22,5.43,6.89
8.217952013015747,2.84,-2.73,5.24,6.55
8.219851016998291,1.96,-3.41,3.21,5.07
8.222357988357544,0.99,-4.04,0.33,4.17
8.22900390625,0.46,-4.19,-2.47,4.88
8.23940896987915,1.06,-4.2,-4.69,6.38
8.248915195465088,2.72,-4.45,-6.1,8.02
8.259343147277832,5.51,-5.79,-6.91,10.56
8.26898193359375,7.64,-7.0,-6.93,12.46
8.27933406829834,7.73,-7.25,-6.01,12.18
8.315499067306519,5.49,-5.65,-4.07,8.86
8.31787395477295,3.47,-5.16,-2.07,6.55
8.319648027420044,2.56,-5.98,-0.52,6.52
8.32212209701538,1.79,-5.96,-0.36,6.23
8.328985214233398,1.12,-5.06,-1.16,5.31
8.338543891906738,1.14,-4.04,-1.86,4.59
8.348493099212646,2.01,-3.04,-2.67,4.51
8.358684062957764,3.31,-2.11,-3.96,5.57
8.368371963500977,4.54,-0.31,-5.04,6.79
8.378782987594604,5.19,1.89,-5.29,7.64
8.416577100753784,4.65,3.28,-4.09,7.0
8.41971206665039,4.08,1.87,-1.28,4.66
8.42148208618164,2.72,-1.9,2.44,4.11
8.4238920211792,-0.74,-2.66,6.8,7.33
8.42805004119873,-3.42,-0.78,9.84,10.44
8.437872886657715,-2.9,0.76,9.83,10.27
8.4483962059021,-0.26,1.44,7.01,7.16
8.458324909210205,1.33,2.9,3.13,4.46
8.46796202659607,1.93,3.75,0.0,4.21
8.478279113769531,1.57,4.22,-1.52,4.75
8.516676902770996,1.05,4.37,-1.91,4.88
8.519568920135498,0.66,3.6,-1.13,3.83
8.521368980407715,-0.67,3.66,0.82,3.81
8.523706912994385,-2.29,4.28,1.91,5.21
8.527745008468628,-3.14,4.56,1.32,5.69
8.537322044372559,-3.3,5.3,-0.33,6.25
8.54753303527832,-2.99,5.55,-2.77,6.88
8.557701110839844,-2.83,5.37,-4.87,7.78
8.567769050598145,-3.89,5.03,-6.12,8.82
8.577713012695312,-5.27,4.26,-4.12,7.93
8.616766929626465,-6.54,3.08,-1.94,7.48
8.61969804763794,-9.14,2.48,-0.09,9.47
8.621608018875122,-10.74,1.39,0.64,10.84
8.624112129211426,-10.07,0.08,0.65,10.09
8.630783081054688,-8.22,-0.44,1.12,8.3
8.641109943389893,-5.97,-0.57,2.52,6.5
8.651223182678223,-4.34,0.41,3.68,5.7
8.661097049713135,-2.47,0.91,2.26,3.46
8.670743942260742,0.46,-0.44,-1.22,1.37
8.718201160430908,3.75,-2.5,-4.41,6.3
8.72031021118164,6.06,-3.16,-5.49,8.76
8.722323894500732,4.9,-0.89,-3.05,5.83
8.724802017211914,1.95,1.31,1.56,2.81
8.727191925048828,0.91,-0.64,5.56,5.67
8.730402946472168,0.09,-2.7,6.98,7.48
8.74052619934082,-0.64,-3.54,6.1,7.08
8.750330924987793,-0.49,-4.02,3.63,5.43
8.760674953460693,0.29,-4.48,1.15,4.63
8.77032208442688,0.93,-4.07,-0.08,4.17
8.818072080612183,1.55,-3.14,0.11,3.5
8.820237159729004,2.25,-2.5,1.03,3.51
8.822309970855713,2.53,-2.65,1.68,4.03
8.824900150299072,2.62,-3.26,1.75,4.53
8.827309131622314,2.78,-4.09,1.32,5.11
8.829729080200195,2.74,-4.53,0.58,5.32
8.840234994888306,2.75,-4.66,-0.97,5.49
8.849791049957275,3.34,-4.95,-3.63,6.98
8.860459089279175,4.01,-5.15,-6.05,8.89
8.86989688873291,4.49,-5.04,-6.56,9.41
8.918484210968018,4.4,-5.07,-5.46,8.65
8.920584201812744,3.58,-5.36,-2.58,6.94
8.92264699935913,2.2,-5.86,0.65,6.29
8.925183057785034,0.73,-6.77,2.44,7.23
8.927608013153076,-0.45,-7.18,2.74,7.69
8.930042028427124,-0.71,-6.54,1.75,6.8
8.939256191253662,0.06,-5.25,0.48,5.27
8.949599027633667,0.88,-2.92,-0.17,3.05
8.959752082824707,1.53,0.69,-1.12,2.01
8.969704151153564,2.97,3.31,-2.73,5.21
9.018045902252197,3.66,4.86,-2.92,6.74
9.020289897918701,2.77,7.11,-1.14,7.71
9.021998882293701,2.7,6.94,1.08,7.52
9.024351119995117,2.78,3.87,3.32,5.8
9.026607036590576,0.19,3.29,5.49,6.4
9.028795003890991,-2.11,3.32,6.97,8.0
9.038685083389282,-3.24,3.08,6.61,7.97
9.048811912536621,-3.83,3.11,4.34,6.57
9.058995008468628,-3.67,3.33,1.19,5.09
9.068458080291748,-2.59,3.68,-1.24,4.66
9.118649959564209,-0.7,4.18,-2.5,4.92
9.120724201202393,1.27,4.54,-2.48,5.32
9.12276315689087,2.31,4.65,-1.83,5.5
9.125226020812988,2.0,4.38,-0.85,4.88
9.127521991729736,0.73,3.38,0.09,3.45
9.129832029342651,-1.01,2.64,0.81,2.94
9.138233184814453,-2.9,2.68,0.68,4.0
9.148210048675537,-3.93,2.64,-0.48,4.75
9.158073902130127,-3.87,2.81,-2.21,5.26
9.168680191040039,-2.58,2.85,-3.93,5.49
9.218025207519531,-0.6,2.68,-4.39,5.17
9.22002100944519,0.55,2.93,-2.83,4.11
9.221782207489014,-0.33,2.95,-0.22,2.97
9.224207878112793,-2.83,2.16,1.75,3.96
9.226654052734375,-5.8,1.16,2.5,6.42
9.229052066802979,-7.68,-0.15,1.94,7.92
9.237454891204834,-8.15,-1.44,1.16,8.35
9.248178958892822,-7.28,-1.83,1.11,7.58
9.258321046829224,-5.26,-1.99,1.65,5.86
9.267940998077393,-3.65,-1.67,2.54,4.75
9.31850290298462,-2.99,-0.45,2.88,4.17
9.320502996444702,-1.88,0.26,1.74,2.57
9.3225679397583,0.29,-0.37,-0.93,1.04
9.325033187866211,1.98,-1.24,-3.47,4.18
9.32741904258728,2.17,-0.97,-5.09,5.61
9.329879999160767,1.11,0.22,-4.84,4.97
9.337077140808105,0.2,-0.1,-2.62,2.62
9.347035884857178,-1.0,-0.87,-1.2,1.78
9.357593059539795,-2.28,-1.28,-1.35,2.94
9.367281913757324,-2.69,-1.98,-2.78,4.34
9.417933940887451,-2.47,-2.79,-4.35,5.72
9.419928073883057,-2.24,-3.04,-4.75,6.06
9.421690940856934,-0.93,-3.0,-3.74,4.88
9.42408299446106,1.62,-3.15,-1.46,3.83
9.42655897140503,3.52,-3.75,1.52,5.36
9.42895221710205,3.36,-4.07,4.13,6.7
9.43647813796997,1.71,-4.2,5.4,7.05
9.44663405418396,0.02,-4.22,4.91,6.47
9.456650018692017,-0.68,-4.17,2.58,4.95
9.467124938964844,-0.06,-3.99,-0.77,4.06
9.517584085464478,1.32,-3.62,-3.9,5.48
9.519722938537598,2.93,-3.09,-5.61,7.04
9.521557092666626,4.44,-2.92,-5.46,7.61
9.524102210998535,5.34,-3.07,-3.53,7.09
9.526464939117432,4.6,-3.37,-0.61,5.73
9.528907060623169,2.64,-3.67,2.09,4.98
9.535875082015991,0.9,-4.53,3.31,5.68
9.54618501663208,-0.3,-5.62,3.44,6.59
9.55626106262207,-1.07,-6.07,2.94,6.82
9.566329956054688,-0.87,-5.91,2.64,6.53
9.61714792251587,-0.66,-4.06,2.21,4.66
9.620153903961182,-0.09,-1.12,0.09,1.12
9.621916055679321,2.1,0.51,-3.4,4.02
9.624332904815674,4.36,2.17,-5.51,7.35
9.626760959625244,5.36,4.31,-5.16,8.59
9.629057884216309,5.37,4.45,-3.24,7.69
9.635472059249878,4.56,2.06,-0.14,5.0
9.645584106445312,1.88,0.28,2.93,3.49
9.655633926391602,-1.72,0.29,4.57,4.89
9.665746212005615,-3.77,0.45,3.56,5.2
9.71710205078125,-3.67,0.81,1.16,3.93
9.72038221359253,-1.68,1.33,-0.83,2.29
9.72217321395874,0.55,2.21,-1.59,2.77
9.724546909332275,1.98,3.21,-1.3,3.98
9.726944923400879,2.04,3.83,-0.39,4.35
9.72932505607605,0.45,3.8,0.04,3.82
9.735011100769043,-2.35,3.87,0.01,4.52
9.745308876037598,-5.07,4.05,-0.31,6.49
9.754899978637695,-6.31,4.1,-0.82,7.56
9.7651948928833,-5.67,4.25,-1.5,7.24
9.817254066467285,-3.53,4.25,-2.54,6.08
9.81982421875,-0.77,4.19,-3.79,5.7
9.821628093719482,1.23,4.01,-4.08,5.85
9.823867082595825,1.08,3.81,-2.81,4.85
9.826319217681885,-0.96,2.9,-0.82,3.16
9.828708171844482,-4.13,1.5,1.4,4.61
9.834405899047852,-6.89,0.1,2.86,7.46
9.84503698348999,-8.16,-1.26,3.68,9.03
9.854798078536987,-7.62,-2.41,4.47,9.15
9.864744186401367,-5.54,-3.31,5.22,8.3
9.917074203491211,-2.69,-3.59,6.52,7.91
9.91939401626587,-0.03,-3.01,7.73,8.29
9.921215057373047,2.24,-2.34,7.26,7.94
9.923753023147583,3.81,-1.93,4.27,6.03
9.926137924194336,3.64,-1.02,0.82,3.86
9.928513050079346,1.79,0.97,-1.52,2.54
9.933823108673096,0.9,1.11,-1.75,2.25
9.944236993789673,0.14,-0.16,0.06,0.22
9.954204082489014,-1.62,-0.34,2.21,2.76
9.964245080947876,-2.67,-0.96,3.48,4.49
10.017098903656006,-3.19,-1.6,3.19,4.78
10.0194091796875,-2.95,-2.74,1.29,4.22
10.0211660861969,-3.12,-2.47,-0.39,3.99
10.02362608909607,-2.74,-1.5,-1.07,3.3
10.02600908279419,-1.61,-1.12,-0.84,2.13
10.028430938720703,-0.43,-1.19,0.03,1.26
10.033204078674316,0.31,-1.33,1.24,1.84
10.043735027313232,0.65,-1.56,2.54,3.05
10.053409099578857,1.13,-2.03,2.66,3.53
10.063599109649658,1.59,-2.64,0.74,3.16
10.11682415008545,2.23,-3.23,-1.91,4.36
10.119199991226196,2.98,-3.62,-4.19,6.28
10.121020078659058,3.77,-4.01,-5.1,7.5
10.123443126678467,4.23,-4.25,-3.89,7.14
10.125833988189697,3.98,-4.43,-1.34,6.1
10.128261089324951,3.06,-4.58,1.38,5.67
10.133157014846802,2.15,-4.86,3.1,6.15
10.14332103729248,1.46,-5.22,2.69,6.05
10.153001070022583,0.81,-4.97,0.56,5.06
10.163290977478027,0.72,-4.32,-1.93,4.78
10.217092990875244,0.78,-3.17,-3.17,4.55
10.219336032867432,1.1,-1.48,-2.79,3.34
10.22110891342163,2.11,0.13,-2.59,3.34
10.223217010498047,3.96,1.6,-3.5,5.52
10.225620985031128,6.33,2.46,-4.85,8.34
10.228025913238525,7.05,2.93,-5.06,9.15
10.232137203216553,6.17,2.06,-3.6,7.43
10.242745876312256,4.2,1.34,-0.26,4.41
10.252500057220459,3.32,-0.68,2.91,4.46
10.262914180755615,1.35,-1.56,4.43,4.88
10.316956996917725,-1.29,-0.1,3.22,3.47
10.319276094436646,-1.64,0.8,0.02,1.82
10.321101188659668,-0.62,1.82,-2.15,2.88
10.323610067367554,0.95,2.17,-1.7,2.91
10.325859069824219,2.11,2.14,0.02,3.0
10.328307151794434,2.43,1.97,1.88,3.64
10.331684112548828,1.48,1.89,3.06,3.88
10.342000961303711,-0.04,1.7,3.15,3.57
10.352185010910034,-1.63,1.45,1.74,2.79
10.361752986907959,-3.1,1.34,-0.29,3.38
10.417564868927002,-4.25,1.49,-2.29,5.05
10.420423984527588,-4.57,1.89,-4.19,6.48
10.422225952148438,-3.97,2.42,-5.06,6.87
10.424734115600586,-2.9,2.61,-3.98,5.57
10.427165031433105,-2.32,2.49,-1.15,3.59
10.429551124572754,-2.63,2.15,2.18,4.03
10.431462049484253,-3.99,1.84,4.16,6.05
10.441385984420776,-6.17,1.48,4.03,7.51
10.451374053955078,-7.9,0.82,2.22,8.24
10.461698055267334,-8.34,-0.12,0.34,8.34
10.517114162445068,-7.37,-1.09,0.53,7.46
10.519458055496216,-5.72,-1.79,2.6,6.53
10.521246910095215,-4.55,-1.9,4.86,6.92
10.523571968078613,-2.94,-2.36,4.8,6.1
10.52602505683899,-0.12,-3.55,1.63,3.9
10.52851915359497,3.4,-5.07,-2.7,6.67
10.530643939971924,6.21,-6.12,-4.93,10.01
10.540952205657959,5.49,-5.57,-4.0,8.78
10.55086612701416,0.64,-3.16,-1.17,3.42
10.561239004135132,-3.44,-2.34,1.18,4.32
10.617452144622803,-4.78,-3.63,1.32,6.14
10.619781970977783,-4.54,-4.46,0.71,6.4
10.621542930603027,-2.71,-4.78,-0.33,5.5
10.624099016189575,-0.78,-4.38,-1.26,4.62
10.626355171203613,0.22,-3.08,-1.18,3.3
10.628841876983643,0.35,-1.44,0.34,1.52
10.631133079528809,0.34,-0.38,2.35,2.4
10.64074993133545,0.83,-0.22,3.69,3.78
10.650866985321045,1.53,-0.49,3.76,4.08
10.660414218902588,1.96,-0.25,2.71,3.35
10.718735218048096,2.47,0.28,1.18,2.75
10.720809936523438,3.34,0.65,-0.61,3.45
10.722545146942139,4.0,0.75,-2.2,4.62
10.724932193756104,4.27,0.56,-3.02,5.25
10.72730302810669,4.62,-0.39,-3.35,5.72
10.729602098464966,4.23,-1.37,-2.94,5.33
10.731870174407959,3.08,-2.44,-1.41,4.17
10.74009108543396,2.05,-3.82,0.86,4.41
10.749730110168457,1.61,-5.18,2.48,5.96
10.760302066802979,1.52,-5.9,2.74,6.68
10.817090034484863,1.7,-6.14,1.93,6.65
10.819939136505127,2.12,-6.26,1.46,6.76
10.822269916534424,2.64,-6.47,2.2,7.32
10.8247389793396,2.96,-6.61,3.85,8.2
10.827116012573242,2.97,-6.02,4.99,8.36
10.82927417755127,4.02,-5.4,2.87,7.31
10.831188201904297,5.93,-5.28,-1.94,8.17
10.839226007461548,6.27,-3.42,-6.08,9.37
10.8491370677948,6.0,-2.6,-7.79,10.17
10.859719038009644,2.85,-0.86,-5.87,6.58
10.918071985244751,1.13,-1.0,-3.0,3.35
10.920249938964844,0.1,-2.79,-0.07,2.79
10.922044038772583,-2.34,-3.61,4.47,6.2
10.924474000930786,-4.08,-4.42,8.61,10.5
10.926989078521729,-4.11,-4.22,9.97,11.58
10.929171085357666,-2.08,-3.28,8.45,9.29
10.931079864501953,1.01,-1.63,4.9,5.26
10.93871021270752,3.7,0.35,0.09,3.71
10.948799133300781,4.88,1.82,-4.22,6.7
10.958898067474365,3.84,2.28,-5.71,7.24
11.017162084579468,1.12,1.85,-4.22,4.74
11.019296169281006,-1.68,0.86,-1.66,2.51
11.02128005027771,-3.89,0.05,0.64,3.94
11.023818016052246,-5.36,-0.02,2.58,5.94
11.026193141937256,-5.46,0.5,3.41,6.45
11.028511047363281,-3.84,1.1,2.31,4.61
11.030908107757568,-1.46,1.75,-0.21,2.28
11.038388013839722,0.78,2.33,-3.17,4.01
11.04795503616333,1.89,2.46,-5.34,6.17
11.058548927307129,1.09,2.48,-5.47,6.1
11.117655992507935,-0.95,2.32,-3.81,4.56
11.119837045669556,-2.84,1.74,-1.92,3.84
11.121610164642334,-4.01,1.14,-1.02,4.29
11.124101161956787,-4.32,0.52,-1.07,4.48
11.126509189605713,-4.08,0.05,-1.92,4.5
11.128635883331299,-3.74,-0.16,-2.84,4.69
11.130535125732422,-3.31,-0.39,-3.13,4.57
11.137549877166748,-2.81,-0.94,-2.06,3.6
11.147844076156616,-2.87,-1.82,0.49,3.43
11.157628059387207,-3.93,-2.44,3.27,5.66
11.218126058578491,-5.56,-2.17,4.4,7.41
11.220116138458252,-5.35,-1.94,2.48,6.2
11.221888065338135,-3.22,-1.82,-1.4,3.95
11.224353075027466,0.08,-1.56,-5.15,5.38
11.22667121887207,4.63,-2.4,-6.36,8.22
11.229093074798584,5.97,-0.83,-3.67,7.05
11.231500148773193,5.05,-1.22,1.55,5.42
11.236975193023682,2.17,-3.32,6.47,7.58
11.24688196182251,-2.28,-3.51,9.39,10.28
11.257426023483276,-4.24,-4.97,9.76,11.74
11.31774091720581,-5.05,-5.24,8.33,11.06
11.319892883300781,-4.66,-4.81,6.0,8.99
11.321640014648438,-3.4,-4.24,3.86,6.66
11.32412600517273,-1.88,-3.51,2.87,4.9
11.3264799118042,-0.64,-2.29,2.47,3.42
11.328792095184326,0.35,-1.41,1.68,2.22
11.331284046173096,0.85,-1.0,0.86,1.56
11.33672308921814,1.02,-0.85,0.22,1.34
11.34680986404419,0.78,-0.77,-0.6,1.24
11.356482982635498,0.38,-0.59,-1.83,1.95
11.418376922607422,0.48,-0.53,-3.36,3.43
11.420592069625854,0.97,-0.74,-4.8,4.95
11.422357082366943,1.74,-1.17,-5.39,5.78
11.424859046936035,2.17,-1.63,-4.82,5.53
11.427306175231934,2.08,-2.06,-2.86,4.09
11.42982006072998,1.54,-2.64,-0.55,3.1
11.432224035263062,0.76,-3.18,1.12,3.45
11.43612289428711,0.35,-3.73,1.48,4.02
11.446013927459717,0.48,-4.26,0.97,4.39
11.456254959106445,1.33,-4.75,-0.21,4.93
11.518342018127441,2.7,-5.56,-1.15,6.28
11.520505905151367,3.48,-5.82,-1.46,6.93
11.5222749710083,3.24,-5.59,-1.06,6.54
11.52465009689331,1.57,-5.12,0.15,5.35
11.527170181274414,-0.84,-4.67,1.55,4.99
11.529577016830444,-2.53,-4.17,2.63,5.54
11.53199291229248,-2.7,-3.37,2.33,4.9
11.535645008087158,-1.18,-2.41,0.01,2.68
11.545709133148193,2.25,-2.35,-3.27,4.61
11.55578088760376,6.06,-1.78,-5.51,8.38
11.619194984436035,7.65,-0.58,-5.97,9.72
11.621181011199951,5.75,0.07,-4.72,7.43
11.622927188873291,2.91,-1.29,-1.96,3.73
11.625237941741943,0.26,-4.09,1.52,4.37
11.627670049667358,-3.17,-5.85,6.05,8.99
11.629887104034424,-6.11,-5.7,10.23,13.2
11.632200002670288,-6.24,-5.08,11.98,14.43
11.634850978851318,-3.71,-4.24,10.93,12.29
11.645027160644531,-0.43,-2.79,7.52,8.03
11.654874086380005,2.25,-0.77,2.97,3.8
11.719441890716553,3.92,1.29,-1.28,4.32
11.721447944641113,4.5,2.82,-3.81,6.53
11.723197937011719,4.46,3.39,-3.84,6.79
11.7256920337677,4.24,2.98,-1.93,5.53
11.72816514968872,3.8,2.08,0.45,4.35
11.73037600517273,3.28,1.05,2.22,4.09
11.732622146606445,2.5,0.44,2.96,3.89
11.73475694656372,1.48,0.25,2.33,2.77
11.744983196258545,0.53,0.47,0.79,1.06
11.754426002502441,0.39,0.65,-1.09,1.32
11.819562911987305,0.75,0.79,-2.7,2.91
11.82164192199707,0.64,0.81,-3.36,3.51
11.823645114898682,0.17,0.54,-3.19,3.23
11.826111078262329,-0.66,0.19,-2.56,2.65
11.828444004058838,-1.81,0.04,-1.95,2.66
11.83091115951538,-2.68,-0.17,-1.97,3.33
11.833339214324951,-3.13,-0.5,-2.49,4.03
11.835820198059082,-3.33,-0.72,-3.0,4.53
11.843882083892822,-2.83,-1.07,-3.18,4.38
11.854359149932861,-2.11,-1.54,-2.74,3.78
11.919250011444092,-1.79,-1.89,-1.91,3.22
11.921241044998169,-1.71,-2.3,-0.89,3.0
11.923038005828857,-2.07,-2.41,0.15,3.18
11.925587177276611,-2.6,-2.31,0.71,3.54
11.927978992462158,-2.9,-2.1,0.5,3.61
11.929985046386719,-2.51,-2.07,-0.26,3.26
11.932045936584473,-1.19,-2.59,-0.92,2.99
11.933948993682861,0.39,-3.19,-0.68,3.28
11.943937063217163,1.92,-3.22,0.19,3.75
11.953419208526611,3.74,-3.87,1.14,5.5
12.01983904838562,3.97,-4.07,2.16,6.08
12.02191686630249,2.67,-3.62,3.41,5.64
12.023885011672974,1.04,-3.47,4.4,5.69
12.026378154754639,-0.66,-3.31,4.35,5.5
12.02878999710083,-1.4,-3.44,3.2,4.9
12.03115701675415,-1.28,-3.58,1.78,4.19
12.033472061157227,-0.92,-3.19,0.63,3.37
12.035906076431274,-0.32,-2.88,-0.41,2.92
12.039087057113647,0.18,-2.46,-0.56,2.52
12.048800945281982,0.5,-2.15,0.41,2.24
12.059028148651123,0.33,-2.12,1.77,2.78
12.117632865905762,-0.24,-2.34,2.61,3.51
12.119776010513306,-0.73,-2.62,2.69,3.82
12.121661186218262,-0.99,-2.69,2.29,3.66
12.124152183532715,-0.93,-2.68,1.7,3.3
12.126521110534668,-0.69,-2.56,1.22,2.91
12.128941059112549,-0.37,-2.4,0.93,2.6
12.131350994110107,-0.14,-2.2,0.95,2.4
12.138484001159668,0.01,-2.04,1.13,2.33
12.148386001586914,0.24,-1.9,1.19,2.25
12.158562183380127,0.38,-1.88,0.95,2.14
12.217375993728638,0.35,-1.85,0.53,1.95
12.219519138336182,0.22,-1.8,0.12,1.81
12.22160291671753,-0.03,-1.71,-0.2,1.72
12.223564147949219,-0.35,-1.56,-0.46,1.66
12.23867416381836,-0.62,-1.46,-0.68,1.72
12.240624904632568,-0.73,-1.45,-0.84,1.82
12.242676019668579,-0.65,-1.51,-1.15,2.0
12.244577884674072,-0.37,-1.57,-1.62,2.28
12.24767804145813,-0.18,-1.51,-2.0,2.51
12.258100032806396,-0.26,-1.39,-2.27,2.67
12.31714391708374,-0.33,-1.27,-2.48,2.8
12.319293975830078,-0.35,-1.09,-2.52,2.76
12.321429014205933,-0.36,-0.78,-2.34,2.49
12.3234281539917,-0.39,-0.64,-2.16,2.28
12.33886194229126,-0.39,-0.73,-2.1,2.25
12.340817928314209,-0.34,-0.88,-1.81,2.04
12.34282898902893,-0.14,-1.14,-1.36,1.78
12.34476900100708,0.01,-1.34,-0.55,1.44
12.34719705581665,0.01,-1.45,0.63,1.58
12.357814073562622,-0.16,-1.44,1.76,2.27
12.417463064193726,-0.34,-1.28,2.36,2.7
12.419579029083252,-0.33,-1.22,2.08,2.43
12.421648979187012,-0.21,-1.14,1.27,1.71
12.423687934875488,-0.19,-0.98,0.36,1.06
12.43846321105957,-0.42,-0.87,-0.11,0.97
12.440421104431152,-0.85,-0.96,0.04,1.28
12.442468166351318,-1.29,-1.17,0.73,1.88
12.444354057312012,-1.77,-1.25,1.84,2.84
12.446747064590454,-1.93,-1.39,2.75,3.63
12.457048892974854,-1.69,-1.7,3.1,3.91
12.516788005828857,-1.53,-1.94,2.97,3.86
12.518809080123901,-1.49,-2.17,2.43,3.58
12.520864963531494,-1.48,-2.26,1.9,3.3
12.523323059082031,-1.5,-2.11,1.52,3.0
12.538520097732544,-1.49,-1.92,1.38,2.79
12.540476083755493,-1.59,-1.8,1.46,2.81
12.542464017868042,-1.8,-1.63,1.56,2.88
12.544388055801392,-2.0,-1.53,1.6,2.98
12.546295166015625,-2.1,-1.52,1.49,2.99
12.556358098983765,-2.15,-1.47,1.28,2.9
12.616332054138184,-2.14,-1.46,0.91,2.74
12.61849308013916,-2.21,-1.39,0.64,2.68
12.620585918426514,-2.24,-1.34,0.32,2.62
12.623594999313354,-2.22,-1.35,-0.17,2.6
12.638514041900635,-2.31,-1.43,-0.55,2.77
12.640506982803345,-2.39,-1.6,-0.6,2.93
12.642448902130127,-2.35,-1.78,-0.44,2.98
12.644344091415405,-2.29,-1.91,-0.39,3.0
12.647336959838867,-2.28,-2.05,-0.44,3.09
12.715278148651123,-2.35,-2.16,-0.77,3.28
12.717473030090332,-2.44,-2.27,-1.31,3.58
12.719265937805176,-2.49,-2.41,-1.82,3.91
12.723191022872925,-2.66,-2.53,-2.1,4.22
12.725001096725464,-2.94,-2.61,-2.17,4.49
12.738550186157227,-3.26,-2.59,-2.06,4.64
12.740504026412964,-3.38,-2.59,-1.7,4.58
12.742388010025024,-3.39,-2.62,-1.25,4.46
12.744311094284058,-3.31,-2.73,-0.88,4.37
12.746602058410645,-3.21,-2.8,-0.67,4.31
12.815232992172241,-3.1,-2.95,-0.46,4.3
12.817293167114258,-3.05,-3.06,-0.24,4.32
12.819054126739502,-2.99,-3.18,-0.18,4.36
12.823477029800415,-2.98,-3.22,-0.02,4.38
12.825250148773193,-2.94,-3.25,0.07,4.38
12.838408946990967,-2.82,-3.28,0.16,4.32
12.840385913848877,-2.56,-3.33,0.48,4.22
12.842360973358154,-2.27,-3.35,0.97,4.16
12.844429016113281,-2.03,-3.45,1.43,4.25
12.846349000930786,-1.87,-3.63,1.76,4.44
12.914898872375488,-1.81,-3.8,1.97,4.64
12.917037963867188,-1.72,-4.01,2.1,4.84
12.918859004974365,-1.58,-4.23,2.07,4.96
12.921982049942017,-1.45,-4.3,1.79,4.87
12.923847198486328,-1.28,-4.34,1.38,4.73
12.93869400024414,-1.15,-4.35,1.04,4.61
12.940556049346924,-1.14,-4.35,0.92,4.59
12.94241189956665,-1.19,-4.41,1.01,4.67
12.944355964660645,-1.33,-4.44,1.1,4.76
12.946269035339355,-1.44,-4.38,1.09,4.73
13.014401912689209,-1.33,-4.35,0.85,4.62
13.01668906211853,-1.3,-4.27,0.56,4.49
13.018447875976562,-1.37,-4.19,0.23,4.41
13.02341604232788,-1.45,-4.16,-0.16,4.4
13.025227069854736,-1.59,-4.07,-0.43,4.39
13.0276780128479,-1.73,-4.05,-0.58,4.44
13.029928207397461,-1.81,-4.06,-0.6,4.48
13.032134056091309,-1.9,-4.08,-0.42,4.52
13.035183906555176,-1.86,-4.18,-0.01,4.57
13.04551100730896,-1.74,-4.17,0.5,4.54
13.11468505859375,-1.55,-4.08,0.75,4.42
13.117065906524658,-1.44,-3.94,0.68,4.24
13.118945121765137,-1.36,-3.7,0.37,3.95
13.123399019241333,-1.18,-3.46,0.03,3.65
13.125189065933228,-0.95,-3.22,-0.11,3.35
13.138787984848022,-0.79,-2.95,-0.06,3.05
13.140716075897217,-0.81,-2.65,-0.02,2.77
13.142711162567139,-0.9,-2.42,-0.06,2.58
13.144661903381348,-0.96,-2.23,-0.05,2.42
13.146582126617432,-1.02,-1.99,0.04,2.23
13.216356992721558,-1.06,-1.81,0.12,2.1
13.218684196472168,-1.02,-1.71,0.1,1.99
13.2205228805542,-0.98,-1.62,0.04,1.89
13.22360610961914,-0.89,-1.5,-0.12,1.74
13.239248991012573,-0.67,-1.45,-0.29,1.62
13.24119520187378,-0.43,-1.38,-0.25,1.46
13.243218898773193,-0.25,-1.32,-0.09,1.34
13.24514389038086,-0.12,-1.27,0.06,1.27
13.247021198272705,-0.07,-1.2,0.16,1.21
13.248884201049805,-0.05,-1.14,0.2,1.15
13.314223051071167,0.0,-1.14,0.21,1.15
13.316210985183716,0.13,-1.13,0.25,1.16
13.317986965179443,0.22,-1.15,0.35,1.22
13.323761940002441,0.29,-1.23,0.55,1.37
13.32557487487793,0.28,-1.25,0.79,1.5
13.3280348777771,0.22,-1.22,0.87,1.51
13.330410957336426,0.14,-1.15,0.75,1.38
13.332869052886963,0.08,-1.02,0.47,1.12
13.33490514755249,0.13,-0.85,0.14,0.87
13.343730926513672,0.25,-0.75,-0.13,0.8
13.414400100708008,0.36,-0.67,-0.19,0.78
13.416594982147217,0.4,-0.58,-0.19,0.72
13.418414115905762,0.42,-0.5,-0.14,0.66
13.420571088790894,0.48,-0.43,-0.07,0.64
13.422324180603027,0.55,-0.37,-0.03,0.66
13.424723148345947,0.62,-0.34,-0.04,0.7
13.427042961120605,0.65,-0.31,-0.09,0.72
13.429533958435059,0.64,-0.27,-0.22,0.72
13.432806015014648,0.67,-0.24,-0.4,0.81
13.443498134613037,0.72,-0.15,-0.57,0.93
13.453286170959473,0.8,-0.1,-0.64,1.02
13.516357898712158,0.77,-0.1,-0.52,0.93
13.518301963806152,0.69,-0.14,-0.28,0.75
13.520544052124023,0.64,-0.21,-0.04,0.67
13.522478103637695,0.61,-0.28,0.1,0.67
13.524399042129517,0.65,-0.34,0.12,0.74
13.52631402015686,0.8,-0.43,-0.01,0.9
13.52824592590332,0.98,-0.5,-0.22,1.12
13.532340049743652,1.07,-0.56,-0.41,1.27
13.542659044265747,1.0,-0.6,-0.44,1.24
13.613947868347168,0.83,-0.6,-0.42,1.1
13.615760087966919,0.74,-0.62,-0.42,1.05
13.617753982543945,0.76,-0.63,-0.49,1.1
13.623842000961304,0.77,-0.6,-0.61,1.15
13.625659942626953,0.79,-0.54,-0.62,1.14
13.628105163574219,0.77,-0.37,-0.63,1.06
13.63017201423645,0.82,-0.23,-0.68,1.08
13.632214069366455,0.86,-0.05,-0.72,1.12
13.634139060974121,0.88,0.11,-0.73,1.14
13.642101049423218,0.89,0.25,-0.71,1.16
13.713629007339478,0.85,0.35,-0.57,1.08
13.71589708328247,0.88,0.4,-0.36,1.03
13.717725038528442,0.95,0.44,-0.12,1.05
13.720113039016724,0.91,0.5,0.13,1.04
13.722401142120361,0.76,0.56,0.39,1.02
13.724145889282227,0.6,0.63,0.6,1.05
13.739468097686768,0.49,0.69,0.76,1.13
13.741456031799316,0.53,0.7,0.83,1.2
13.743290901184082,0.69,0.7,0.85,1.29
13.745151996612549,0.8,0.74,0.98,1.46
13.813430070877075,0.88,0.84,1.13,1.66
13.81537914276123,0.92,0.95,1.13,1.73
13.817065000534058,0.94,1.05,0.94,1.69
13.819300174713135,1.04,1.06,0.61,1.6
13.821974992752075,1.14,1.07,0.34,1.6
13.823662042617798,1.21,1.06,0.27,1.63
13.839231967926025,1.29,1.03,0.42,1.7
13.841227054595947,1.35,1.02,0.64,1.8
13.843139171600342,1.42,0.97,0.75,1.87
13.84503698348999,1.48,0.93,0.69,1.87
13.912633895874023,1.52,0.89,0.51,1.83
13.914872169494629,1.5,0.87,0.35,1.76
13.916612148284912,1.4,0.9,0.23,1.68
13.919013023376465,1.34,0.95,0.1,1.64
13.922006130218506,1.4,0.99,-0.03,1.71
13.923789024353027,1.36,1.05,-0.07,1.71
13.939343929290771,1.25,1.15,-0.07,1.69
13.941277980804443,1.19,1.27,-0.17,1.74
13.94316291809082,1.17,1.42,-0.4,1.88
13.94508695602417,1.18,1.56,-0.79,2.1
14.012850999832153,1.24,1.7,-1.2,2.42
14.015178203582764,1.26,1.84,-1.44,2.65
14.016792058944702,1.26,1.91,-1.49,2.73
14.018992900848389,1.15,1.95,-1.4,2.66
14.022100925445557,0.94,1.99,-1.34,2.57
14.02389907836914,0.77,1.98,-1.35,2.51
14.039594173431396,0.64,1.97,-1.34,2.46
14.04150915145874,0.52,1.96,-1.26,2.38
14.043477058410645,0.43,1.92,-1.15,2.27
14.045531988143921,0.35,1.86,-0.97,2.12
14.113229990005493,0.24,1.76,-0.69,1.9
14.115249156951904,0.14,1.66,-0.48,1.73
14.116989135742188,0.13,1.58,-0.42,1.64
14.119318008422852,0.12,1.59,-0.45,1.65
14.122122049331665,0.05,1.64,-0.5,1.71
14.123900890350342,0.01,1.75,-0.53,1.82
14.139624118804932,0.0,1.91,-0.59,1.99
14.141601085662842,0.12,2.01,-0.56,2.09
14.143558979034424,0.32,2.08,-0.36,2.13
14.145411968231201,0.52,2.17,-0.02,2.23
14.212881088256836,0.74,2.25,0.4,2.4
14.215031147003174,0.98,2.25,0.84,2.59
14.216730117797852,1.04,2.24,1.25,2.76
14.219025135040283,0.91,2.22,1.51,2.83
14.221245050430298,0.72,2.2,1.67,2.85
14.222965002059937,0.56,2.26,1.76,2.91
14.225303173065186,0.56,2.28,1.73,2.91
14.227208137512207,0.65,2.26,1.65,2.87
14.22948694229126,0.72,2.22,1.62,2.84
14.239209175109863,0.7,2.11,1.76,2.83
14.312517166137695,0.64,1.98,2.01,2.89
14.314555168151855,0.55,1.83,2.31,2.99
14.31649112701416,0.4,1.67,2.59,3.1
14.318960189819336,0.26,1.43,2.75,3.11
14.321178913116455,0.05,1.26,2.75,3.02
14.322874069213867,-0.14,1.11,2.59,2.82
14.325000047683716,-0.28,0.86,2.39,2.55
14.327298164367676,-0.27,0.44,2.23,2.28
14.32972002029419,-0.33,0.0,2.04,2.06
14.338640213012695,-0.5,-0.4,1.94,2.04
14.412339210510254,-0.75,-0.8,1.91,2.2
14.414417028427124,-1.16,-0.96,1.9,2.42
14.416481971740723,-1.51,-1.0,1.69,2.47
14.41902208328247,-1.66,-0.9,1.09,2.18
14.421320915222168,-1.65,-0.71,0.22,1.8
14.42305302619934,-1.47,-0.47,-0.53,1.63
14.425463199615479,-1.18,-0.2,-1.03,1.57
14.427698135375977,-0.91,0.03,-1.24,1.53
14.429912090301514,-0.71,0.12,-1.31,1.49
14.43791389465332,-0.44,0.14,-1.26,1.34
14.5121910572052,-0.21,0.16,-1.17,1.19
14.514272212982178,-0.24,0.17,-1.14,1.17
14.51629900932312,-0.37,0.12,-1.23,1.29
14.518836975097656,-0.48,0.11,-1.36,1.44
14.521140098571777,-0.57,0.16,-1.43,1.54
14.522899150848389,-0.61,0.26,-1.56,1.69
14.525350093841553,-0.57,0.38,-1.83,1.95
14.527636051177979,-0.47,0.52,-2.02,2.13
14.529900074005127,-0.34,0.67,-2.15,2.27
14.537374019622803,-0.27,0.82,-2.22,2.38
14.612206935882568,-0.17,0.94,-2.34,2.52
14.614348888397217,-0.12,1.06,-2.44,2.66
14.616434097290039,-0.1,1.23,-2.48,2.77
14.618927955627441,-0.02,1.33,-2.59,2.91
14.621140956878662,0.07,1.38,-2.64,2.97
14.62289309501648,0.13,1.44,-2.54,2.92
14.62539291381836,0.15,1.45,-2.22,2.65
14.627775192260742,0.1,1.5,-1.75,2.3
14.629772186279297,0.09,1.63,-1.21,2.03
14.63667106628418,0.3,1.73,-0.62,1.86
14.712485074996948,0.6,1.74,-0.18,1.84
14.714510917663574,0.83,1.65,0.15,1.85
14.716564178466797,0.96,1.54,0.5,1.88
14.719107151031494,0.98,1.45,0.92,1.97
14.721270084381104,0.89,1.25,1.46,2.11
14.72301197052002,0.79,0.95,2.11,2.44
14.72546911239624,0.77,0.62,2.7,2.87
14.72783613204956,0.64,0.33,3.02,3.1
14.730156898498535,0.47,0.0,3.07,3.1
14.736433029174805,0.36,-0.35,3.03,3.07
14.812536001205444,0.31,-0.64,2.99,3.07
14.814435958862305,0.39,-0.92,2.96,3.12
14.81643295288086,0.49,-1.12,2.85,3.1
14.818758964538574,0.51,-0.99,2.63,2.85
14.820938110351562,0.62,-0.6,2.14,2.3
14.822827100753784,1.09,-0.33,1.25,1.69
14.825323104858398,1.62,-0.2,0.23,1.64
14.827602863311768,1.8,0.12,-0.61,1.9
14.829912185668945,1.88,0.29,-0.94,2.12
14.835561037063599,1.86,0.21,-0.61,1.96
14.912896156311035,1.71,-0.03,0.01,1.71
14.915004014968872,1.49,-0.35,0.47,1.6
14.917026042938232,1.08,-0.51,0.53,1.3
14.919665098190308,0.74,-0.65,0.37,1.05
14.922545909881592,0.66,-0.77,0.13,1.02
14.92439889907837,0.74,-0.97,-0.06,1.22
14.939702033996582,0.77,-1.21,0.03,1.43
14.941637992858887,0.55,-1.33,0.44,1.5
14.943601131439209,0.26,-1.45,0.93,1.74
14.945563077926636,-0.1,-1.62,1.28,2.06
15.015101909637451,-0.42,-1.69,1.37,2.21
15.017420053482056,-0.69,-1.58,1.2,2.1
15.019195079803467,-0.8,-1.36,0.83,1.78
15.024310111999512,-0.73,-1.1,0.3,1.35
15.026129007339478,-0.55,-0.76,-0.34,0.99
15.028584003448486,-0.32,-0.37,-0.94,1.05
15.030578136444092,-0.15,-0.03,-1.56,1.56
15.032587051391602,-0.13,0.2,-2.14,2.15
15.034516096115112,-0.16,0.37,-2.55,2.58
15.036458015441895,-0.14,0.52,-2.78,2.83
15.112971067428589,-0.17,0.66,-2.95,3.02
15.115076065063477,-0.19,0.81,-3.15,3.25
15.117064952850342,-0.22,0.94,-3.39,3.52
15.119429111480713,-0.32,1.05,-3.67,3.83
15.121679067611694,-0.43,1.13,-3.86,4.04
15.12352705001831,-0.49,1.21,-3.9,4.11
15.125935077667236,-0.55,1.34,-3.83,4.09
15.128268003463745,-0.64,1.49,-3.68,4.02
15.13056206703186,-0.73,1.61,-3.51,3.93
15.133958101272583,-0.83,1.7,-3.34,3.83
15.212076187133789,-0.91,1.78,-3.08,3.67
15.214343070983887,-1.04,1.8,-2.7,3.4
15.21610403060913,-1.24,1.79,-2.09,3.01
15.223031044006348,-1.45,1.79,-1.23,2.61
15.224823951721191,-1.61,1.81,-0.35,2.44
15.226818084716797,-1.7,1.76,0.47,2.49
15.228806972503662,-1.76,1.69,1.07,2.66
15.230721950531006,-1.79,1.65,1.24,2.73
15.232570171356201,-1.78,1.61,1.15,2.66
15.234395980834961,-1.67,1.55,1.02,2.49
15.312106132507324,-1.41,1.38,0.95,2.18
15.314126014709473,-0.89,1.0,0.92,1.62
15.315884113311768,-0.43,0.59,0.88,1.14
15.323678970336914,-0.41,0.7,0.91,1.21
15.325578212738037,-0.52,1.14,0.94,1.56
15.327630996704102,-0.29,1.34,0.93,1.65
15.329554080963135,0.12,1.31,0.92,1.6
15.331382036209106,0.38,1.17,0.96,1.56
15.333158016204834,0.46,0.9,1.19,1.56
15.334930896759033,0.52,0.48,1.73,1.86
15.412426948547363,0.52,0.01,2.45,2.5
15.41446304321289,0.47,-0.46,3.03,3.1
15.41624903678894,0.43,-0.83,3.39,3.51
15.418384075164795,0.44,-1.01,3.41,3.58
15.420527935028076,0.46,-1.07,2.85,3.07
15.423025131225586,0.59,-1.06,2.0,2.33
15.424858093261719,0.79,-1.1,1.34,1.9
15.439745903015137,0.8,-1.08,1.04,1.69
15.441853046417236,0.66,-1.04,1.1,1.65
15.443863868713379,0.49,-1.1,1.43,1.86
15.5158109664917,0.2,-1.26,1.92,2.3
15.518147945404053,-0.23,-1.42,2.28,2.69
15.520010948181152,-0.67,-1.52,2.32,2.85
15.524749994277954,-1.06,-1.54,2.02,2.75
15.526550054550171,-1.2,-1.35,1.36,2.26
15.539834022521973,-1.02,-1.15,0.4,1.58
15.542037010192871,-0.7,-0.94,-0.52,1.28
15.544039011001587,-0.43,-0.68,-1.12,1.37
15.54591989517212,-0.31,-0.43,-1.43,1.52
15.547847032546997,-0.26,-0.24,-1.67,1.7
15.620349884033203,-0.23,-0.16,-1.81,1.83
15.622846126556396,-0.21,-0.12,-1.87,1.88
15.624763011932373,-0.24,-0.03,-1.97,1.98
15.626800060272217,-0.26,0.08,-2.14,2.15
15.628668069839478,-0.25,0.25,-2.41,2.43
15.63061809539795,-0.17,0.41,-2.75,2.78
15.632451057434082,-0.05,0.56,-3.15,3.19
15.634291172027588,0.07,0.74,-3.38,3.46
15.636213064193726,0.18,0.84,-3.4,3.5
15.638667106628418,0.23,0.85,-3.13,3.25
15.71229600906372,0.21,0.78,-2.58,2.7
15.714534044265747,0.09,0.67,-1.98,2.09
15.716346025466919,-0.14,0.68,-1.52,1.67
15.718885898590088,-0.26,0.79,-1.23,1.48
15.721189022064209,-0.1,0.9,-0.93,1.29
15.723502159118652,0.22,0.96,-0.37,1.05
15.725222110748291,0.4,0.99,0.16,1.07
15.740134000778198,0.41,0.82,0.39,0.99
15.742041110992432,0.2,0.63,0.42,0.78
15.744226932525635,-0.09,0.4,0.28,0.49
15.817790985107422,-0.35,0.19,0.08,0.4
15.819987058639526,-0.65,0.24,-0.07,0.69
15.821741104125977,-0.67,0.31,-0.14,0.75
15.824799060821533,-0.5,0.54,-0.1,0.74
15.840213060379028,-0.4,1.1,-0.1,1.17
15.84209394454956,-0.29,1.63,-0.42,1.7
15.844227075576782,-0.09,2.17,-1.01,2.39
15.846187114715576,1.01,1.97,-1.46,2.65
15.848108053207397,2.01,1.49,-1.19,2.77
15.850059032440186,2.0,1.14,0.22,2.31
15.92383599281311,1.54,0.4,2.31,2.8
15.926099061965942,0.92,-0.72,4.47,4.62
15.927832126617432,0.19,-1.47,6.0,6.18
15.942471027374268,-0.16,-1.89,6.04,6.33
15.944305896759033,-0.12,-1.89,4.88,5.23
15.946578025817871,0.31,-1.47,3.01,3.36
15.948702096939087,0.93,-0.93,1.08,1.7
15.950531005859375,1.4,-0.42,-0.17,1.47
15.952476978302002,1.61,-0.11,-0.39,1.66
15.95439100265503,1.5,-0.09,0.02,1.5
16.02909803390503,1.16,-0.41,0.65,1.39
16.03104591369629,0.63,-0.73,1.39,1.69
16.033051013946533,0.27,-0.96,2.06,2.28
16.041553020477295,0.07,-1.02,2.26,2.48
16.04345202445984,-0.06,-0.88,1.91,2.1
16.045922994613647,0.03,-0.59,1.11,1.25
16.048280000686646,0.29,-0.2,0.04,0.35
16.050364017486572,0.61,0.13,-0.98,1.16
16.05250906944275,0.72,0.36,-1.78,1.95
16.054713010787964,0.65,0.46,-2.25,2.38
16.056992053985596,0.43,0.47,-2.39,2.47
16.131973028182983,0.16,0.48,-2.37,2.42
16.134226083755493,-0.02,0.5,-2.27,2.32
16.135979175567627,-0.07,0.57,-2.36,2.42
16.14160704612732,0.04,0.66,-2.72,2.79
16.14343810081482,0.24,0.76,-3.12,3.22
16.145910024642944,0.42,0.86,-3.45,3.58
16.147772073745728,0.44,0.92,-3.51,3.65
16.14969491958618,0.28,0.92,-3.3,3.43
16.15151596069336,0.07,0.9,-2.84,2.98
16.15341806411743,-0.1,0.89,-2.31,2.47
16.22883105278015,-0.14,0.71,-1.84,1.97
16.230824947357178,-0.19,0.52,-1.2,1.32
16.232827186584473,-0.21,0.44,-0.3,0.57
16.241739988327026,-0.22,0.35,0.66,0.77
16.243698120117188,-0.07,0.31,1.61,1.64
16.246243000030518,0.3,0.23,2.25,2.28
16.248371124267578,0.55,0.14,2.43,2.49
16.250397205352783,0.53,0.11,2.11,2.17
16.252315044403076,0.4,0.14,1.54,1.59
16.25446105003357,0.16,0.28,1.01,1.06
16.330860137939453,0.0,0.39,0.72,0.81
16.33301305770874,-0.01,0.57,0.65,0.86
16.335081100463867,0.02,0.75,0.75,1.06
16.341607093811035,-0.04,0.98,0.84,1.29
16.34342098236084,0.18,0.95,0.8,1.25
16.345941066741943,0.32,0.83,0.55,1.04
16.348206996917725,0.02,0.84,0.37,0.91
16.350244998931885,-0.38,0.73,0.55,0.98
16.35212802886963,-0.58,0.46,1.13,1.35
16.354175090789795,-0.38,0.02,1.75,1.79
16.430623054504395,0.05,-0.52,2.08,2.14
16.432741165161133,0.41,-0.94,2.03,2.27
16.43484902381897,0.64,-1.13,1.78,2.2
16.441699981689453,0.61,-1.05,1.55,1.96
16.443498134613037,0.34,-0.9,1.46,1.74
16.445852994918823,0.02,-0.76,1.52,1.69
16.448177099227905,-0.15,-0.63,1.72,1.83
16.450253009796143,0.0,-0.71,1.97,2.09
16.452178955078125,0.07,-0.78,2.22,2.35
16.454134941101074,-0.11,-0.76,2.31,2.43
16.53074312210083,-0.31,-0.74,2.06,2.21
16.532844066619873,-0.41,-0.65,1.47,1.65
16.53488802909851,-0.46,-0.49,0.7,0.97
16.541900157928467,-0.46,-0.31,-0.13,0.56
16.543735027313232,-0.39,-0.18,-0.78,0.89
16.54598903656006,-0.24,-0.06,-1.32,1.34
16.548359870910645,-0.06,0.03,-1.99,1.99
16.55070400238037,0.08,0.17,-2.64,2.64
16.552573204040527,0.09,0.26,-3.25,3.26
16.554893970489502,0.1,0.28,-3.73,3.74
16.6336932182312,0.05,0.22,-4.01,4.01
16.635796070098877,-0.01,0.12,-4.1,4.1
16.63786220550537,-0.1,0.05,-3.96,3.96
16.64185619354248,-0.12,-0.01,-3.72,3.72
16.643683910369873,-0.04,0.01,-3.44,3.44
16.65727996826172,-0.01,0.22,-3.35,3.35
16.659265995025635,-0.02,0.42,-3.42,3.44
16.661250114440918,0.12,0.54,-3.44,3.48
16.663111209869385,0.45,0.51,-3.15,3.22
16.6651349067688,0.7,0.48,-2.67,2.8
16.7436420917511,0.69,0.35,-1.92,2.07
16.745928049087524,0.46,0.28,-1.11,1.23
16.74765920639038,0.22,0.26,-0.41,0.53
16.758980989456177,0.02,0.28,0.09,0.29
16.760825157165527,-0.02,0.13,0.42,0.44
16.763415098190308,-0.04,-0.05,0.59,0.59
16.76584815979004,-0.06,-0.25,0.61,0.66
16.767856121063232,-0.12,-0.22,0.59,0.64
16.76976203918457,-0.07,-0.2,0.64,0.67
16.771830081939697,-0.13,-0.07,0.82,0.83
16.850441932678223,-0.26,0.27,1.11,1.17
16.85274887084961,-0.14,0.41,1.28,1.35
16.854605197906494,0.06,0.51,1.19,1.29
16.85841202735901,0.46,0.58,0.89,1.15
16.860197067260742,1.09,0.75,0.75,1.52
16.874243021011353,1.7,0.87,0.9,2.11
16.876171112060547,1.91,0.7,1.36,2.44
16.878238201141357,1.74,0.27,1.78,2.5
16.880181074142456,1.31,-0.26,2.07,2.46
16.882099151611328,0.87,-0.73,2.52,2.76
16.961668968200684,0.3,-1.18,3.02,3.25
16.96372413635254,-0.3,-1.45,3.37,3.68
16.965457916259766,-0.69,-1.53,3.35,3.74
16.975668907165527,-0.79,-1.49,2.81,3.27
16.977554082870483,-0.55,-1.39,1.87,2.39
16.980091094970703,-0.19,-1.23,0.87,1.51
16.98255705833435,0.02,-1.1,-0.02,1.1
16.98495388031006,0.0,-1.0,-0.57,1.15
16.986967086791992,-0.15,-0.95,-0.69,1.18
16.98933696746826,-0.26,-0.98,-0.47,1.11
17.069036960601807,-0.29,-1.0,-0.17,1.05
17.071395874023438,-0.23,-0.89,-0.09,0.92
17.073270082473755,-0.11,-0.62,-0.37,0.73
17.075443983078003,0.06,-0.34,-0.94,1.0
17.091222047805786,0.27,-0.02,-1.56,1.58
17.09325909614563,0.59,0.26,-2.02,2.12
17.095202922821045,0.76,0.48,-2.3,2.46
17.097162008285522,0.79,0.65,-2.41,2.61
17.09910011291504,0.74,0.74,-2.36,2.58
17.101029872894287,0.59,0.78,-2.19,2.39
17.181408882141113,0.4,0.84,-2.01,2.21
17.183736085891724,0.32,0.9,-2.03,2.24
17.18539309501648,0.32,0.96,-2.1,2.33
17.192059993743896,0.31,1.06,-2.17,2.43
17.193872928619385,0.32,1.14,-2.18,2.48
17.196182012557983,0.34,1.2,-2.09,2.43
17.198419094085693,0.34,1.14,-1.95,2.28
17.200459957122803,0.13,1.17,-1.76,2.11
17.202425003051758,-0.18,1.27,-1.5,1.97
17.204490184783936,-0.39,1.36,-1.24,1.88
17.285754203796387,-0.55,1.36,-0.87,1.7
17.287719011306763,-0.73,1.26,-0.3,1.48
17.289720058441162,-0.86,0.99,0.54,1.41
17.292092084884644,-0.85,0.67,1.43,1.79
17.30801296234131,-0.78,0.4,2.24,2.4
17.30999517440796,-0.87,0.25,2.8,2.94
17.31205987930298,-1.1,0.2,3.08,3.27
17.31394100189209,-1.27,0.27,3.06,3.32
17.315860986709595,-1.22,0.37,2.71,2.99
17.3178391456604,-1.02,0.64,2.08,2.4
17.399471044540405,-0.53,0.79,1.39,1.68
17.401539087295532,0.12,0.73,0.86,1.13
17.403268098831177,0.56,0.48,0.68,1.0
17.408751010894775,0.66,0.26,0.89,1.13
17.41055917739868,0.36,0.03,1.37,1.41
17.4130220413208,-0.14,-0.25,1.81,1.83
17.415252208709717,-0.42,-0.62,2.3,2.41
17.41766119003296,-0.44,-1.04,2.77,2.99
17.419426918029785,-0.44,-1.24,2.87,3.15
17.42156219482422,-0.3,-1.34,2.4,2.76
17.504072189331055,-0.11,-1.29,1.4,1.9
17.506201028823853,0.14,-1.14,0.24,1.17
17.507966995239258,0.35,-1.03,-0.63,1.25
17.51047706604004,0.33,-0.86,-0.84,1.24
17.512866973876953,0.25,-0.84,-0.59,1.05
17.51503896713257,0.16,-0.84,-0.09,0.85
17.517019987106323,0.11,-0.91,0.3,0.96
17.518959999084473,-0.05,-0.99,0.46,1.09
17.52100110054016,-0.22,-1.01,0.45,1.12
17.52340602874756,-0.33,-0.94,0.27,1.03
17.606085062026978,-0.34,-0.86,-0.11,0.93
17.608156204223633,-0.27,-0.75,-0.55,0.96
17.6099910736084,-0.16,-0.58,-0.94,1.11
17.625720977783203,-0.07,-0.44,-1.32,1.39
17.62761902809143,-0.1,-0.3,-1.59,1.62
17.630205154418945,-0.25,-0.13,-1.79,1.81
17.632683992385864,-0.36,-0.01,-1.97,2.0
17.634568214416504,-0.36,0.12,-2.12,2.15
17.636499881744385,-0.23,0.3,-2.31,2.34
17.638845920562744,-0.03,0.48,-2.5,2.54
17.72352695465088,0.13,0.61,-2.61,2.68
17.72557497024536,0.23,0.66,-2.65,2.74
17.727599143981934,0.36,0.65,-2.51,2.61
17.742496013641357,0.43,0.77,-2.3,2.46
17.744378089904785,0.49,0.9,-2.21,2.43
17.746909141540527,0.63,0.96,-2.26,2.53
17.749331951141357,0.72,0.95,-2.18,2.48
17.751801013946533,0.74,0.94,-1.92,2.26
17.753665924072266,0.69,0.89,-1.42,1.81
17.75595712661743,0.58,0.7,-0.63,1.1
17.84013795852661,0.34,0.47,0.27,0.63
17.842130184173584,0.1,0.23,0.97,1.0
17.844200134277344,-0.06,0.01,1.29,1.29
17.8596830368042,-0.17,-0.09,1.28,1.29
17.861462116241455,0.02,-0.3,1.13,1.16
17.86378288269043,0.27,-0.57,1.05,1.22
17.8660249710083,0.32,-0.73,1.13,1.38
17.868346214294434,0.44,-0.79,1.55,1.79
17.870235919952393,0.61,-0.74,2.18,2.38
17.872626066207886,0.62,-0.38,2.55,2.65
17.95776605606079,0.73,0.03,2.39,2.49
17.959843158721924,1.07,0.31,1.66,1.99
17.961833000183105,1.39,0.33,0.61,1.55
17.9761700630188,1.46,0.15,-0.12,1.47
17.978079080581665,1.36,0.06,-0.17,1.37
17.980566024780273,1.12,-0.03,0.43,1.2
17.98304319381714,0.9,-0.47,1.44,1.76
17.98511505126953,0.53,-0.83,2.58,2.76
17.987037181854248,0.24,-1.07,3.26,3.43
17.989371061325073,0.05,-1.18,3.32,3.52
18.074712991714478,0.04,-1.08,2.83,3.02
18.0768141746521,0.05,-0.86,1.96,2.14
18.078901052474976,0.04,-0.58,0.92,1.08
18.092905044555664,0.09,-0.36,0.19,0.41
18.09481906890869,0.13,-0.19,-0.19,0.29
18.097382068634033,0.17,-0.08,-0.35,0.39
18.099763870239258,0.2,-0.05,-0.4,0.45
18.101626873016357,0.21,-0.03,-0.39,0.44
18.103578090667725,0.28,-0.03,-0.46,0.53
18.105568885803223,0.28,0.02,-0.59,0.65
18.19170904159546,0.28,0.11,-0.78,0.83
18.19362497329712,0.35,0.17,-1.1,1.16
18.19568705558777,0.46,0.27,-1.51,1.6
18.20992398262024,0.6,0.29,-2.0,2.1
18.21180009841919,0.61,0.32,-2.21,2.31
18.214240074157715,0.56,0.45,-2.26,2.37
18.21666407585144,0.57,0.55,-2.26,2.39
18.218440055847168,0.58,0.63,-2.25,2.4
18.220504999160767,0.53,0.7,-2.23,2.39
18.222731113433838,0.39,0.74,-2.32,2.46
18.309336185455322,0.21,0.76,-2.54,2.65
18.311646938323975,-0.03,0.82,-2.71,2.83
18.313479900360107,-0.25,0.84,-2.77,2.9
18.327030181884766,-0.41,0.86,-2.69,2.85
18.328919887542725,-0.5,0.88,-2.49,2.68
18.331391096115112,-0.55,0.84,-2.16,2.38
18.333967208862305,-0.65,0.77,-1.67,1.95
18.335986137390137,-0.79,0.77,-1.09,1.55
18.337786197662354,-0.88,0.75,-0.56,1.28
18.3404278755188,-0.99,0.72,-0.05,1.22
18.427759170532227,-1.02,0.68,0.38,1.28
18.42984390258789,-0.91,0.61,0.78,1.34
18.431627988815308,-0.69,0.52,0.98,1.3
18.44352912902832,-0.47,0.45,0.96,1.15
18.44542407989502,-0.23,0.34,0.9,0.98
18.447797060012817,-0.02,0.23,0.98,1.0
18.45015287399292,-0.02,0.23,1.21,1.23
18.451889991760254,-0.19,0.44,1.51,1.58
18.45385217666626,-0.24,0.69,1.61,1.76
18.456135034561157,-0.19,0.85,1.41,1.65
18.54310894012451,-0.06,0.81,1.29,1.52
18.545242071151733,0.17,0.56,1.27,1.39
18.547237873077393,0.18,0.2,1.52,1.54
18.559750080108643,-0.16,-0.1,2.08,2.08
18.561642169952393,-0.41,-0.41,2.66,2.72
18.564210891723633,-0.64,-0.76,3.1,3.25
18.56653118133545,-0.91,-1.11,3.17,3.47
18.568933963775635,-1.15,-1.35,2.8,3.31
18.57093095779419,-1.22,-1.39,2.19,2.86
18.57326889038086,-1.08,-1.28,1.52,2.26
18.661652088165283,-0.76,-1.08,0.99,1.65
18.66373586654663,-0.45,-0.85,0.61,1.13
18.665582180023193,-0.28,-0.64,0.35,0.78
18.676897048950195,-0.26,-0.57,0.19,0.65
18.67885112762451,-0.32,-0.54,0.09,0.63
18.681331157684326,-0.39,-0.59,-0.07,0.71
18.683245182037354,-0.4,-0.65,-0.23,0.79
18.685204029083252,-0.4,-0.73,-0.34,0.89
18.687031030654907,-0.48,-0.8,-0.43,1.02
18.689606189727783,-0.55,-0.87,-0.64,1.21
18.777847051620483,-0.62,-0.86,-0.92,1.4
18.779972076416016,-0.64,-0.73,-1.24,1.57
18.782072067260742,-0.51,-0.52,-1.66,1.81
18.793156147003174,-0.32,-0.27,-2.15,2.19
18.795039176940918,-0.21,-0.03,-2.59,2.59
18.797595024108887,-0.16,0.2,-2.97,2.98
18.800118923187256,-0.12,0.36,-3.27,3.29
18.802155017852783,-0.06,0.51,-3.49,3.52
18.804095029830933,0.07,0.6,-3.54,3.59
18.806424140930176,0.24,0.64,-3.49,3.55
18.8942551612854,0.34,0.66,-3.31,3.39
18.89632797241211,0.32,0.7,-3.07,3.16
18.89842700958252,0.34,0.64,-2.79,2.88
18.909983158111572,0.35,0.59,-2.31,2.4
18.91178607940674,0.37,0.59,-1.65,1.79
18.913992881774902,0.38,0.52,-0.94,1.13
18.91628408432007,0.33,0.51,-0.34,0.69
18.918699026107788,0.29,0.53,0.05,0.6
18.92057514190674,0.28,0.46,0.35,0.64
18.92290687561035,0.18,0.37,0.67,0.78
19.01212215423584,-0.02,0.29,0.91,0.95
19.014204025268555,-0.2,0.14,1.12,1.14
19.016240119934082,-0.26,-0.07,1.25,1.27
19.02655601501465,-0.21,-0.2,1.43,1.45
19.02847409248352,-0.06,-0.22,1.67,1.68
19.03093409538269,0.2,-0.18,2.03,2.04
19.033379077911377,0.52,-0.11,2.25,2.31
19.035571098327637,0.62,0.21,2.15,2.24
19.037464141845703,0.72,0.45,1.67,1.87
19.0394868850708,1.07,0.39,0.88,1.43
19.12883996963501,1.39,0.12,0.2,1.4
19.130939960479736,1.29,0.29,0.15,1.33
19.132977962493896,1.31,0.35,0.78,1.56
19.14375114440918,1.38,0.01,1.54,2.06
19.145657062530518,1.19,-0.46,2.48,2.78
19.148191928863525,0.77,-0.89,3.37,3.56
19.150166034698486,0.41,-1.34,3.94,4.18
19.152061939239502,0.06,-1.47,3.9,4.16
19.15387201309204,0.06,-1.36,3.28,3.55
19.155904054641724,0.29,-1.18,2.29,2.59
19.244047164916992,0.42,-0.9,1.17,1.53
19.246140003204346,0.5,-0.61,0.18,0.8
19.248162031173706,0.58,-0.34,-0.58,0.88
19.260310173034668,0.62,-0.19,-1.07,1.25
19.262214183807373,0.53,-0.16,-1.27,1.38
19.26479196548462,0.29,-0.21,-1.14,1.19
19.2672700881958,0.05,-0.32,-0.84,0.9
19.269309043884277,-0.1,-0.39,-0.5,0.64
19.27124786376953,-0.08,-0.38,-0.23,0.45
19.273561000823975,0.02,-0.28,-0.29,0.4
19.361949920654297,0.1,-0.11,-0.72,0.73
19.364223957061768,0.07,0.13,-1.41,1.41
19.366048097610474,-0.04,0.33,-2.04,2.06
19.376885890960693,-0.21,0.47,-2.42,2.47
19.378772020339966,-0.33,0.56,-2.65,2.72
19.38124418258667,-0.46,0.59,-2.79,2.88
19.383713006973267,-0.66,0.64,-2.81,2.95
19.38586401939392,-0.9,0.65,-2.83,3.03
19.387837886810303,-1.05,0.66,-2.76,3.02
19.39042901992798,-1.1,0.69,-2.72,3.01
19.48027205467224,-1.06,0.73,-2.76,3.04
19.48254919052124,-0.98,0.8,-2.81,3.08
19.48427104949951,-0.82,0.83,-2.81,3.04
19.49353313446045,-0.64,0.86,-2.56,2.77
19.495426177978516,-0.42,0.78,-2.12,2.29
19.4978289604187,-0.32,0.68,-1.49,1.66
19.500032901763916,-0.41,0.67,-0.72,1.06
19.501935958862305,-0.54,0.72,-0.07,0.9
19.503849029541016,-0.65,0.77,0.34,1.06
19.505840063095093,-0.65,0.78,0.59,1.17
19.59509801864624,-0.58,0.72,0.7,1.15
19.597206115722656,-0.51,0.56,0.83,1.12
19.5992112159729,-0.52,0.4,1.11,1.28
19.611063957214355,-0.6,0.23,1.47,1.6
19.612956047058105,-0.84,0.17,1.83,2.02
19.615467071533203,-1.1,0.2,2.16,2.43
19.618062019348145,-1.27,0.45,2.27,2.63
19.620005130767822,-1.08,0.71,2.0,2.38
19.62207317352295,-0.57,0.75,1.44,1.72
19.624674081802368,-0.02,0.67,1.1,1.28
19.71445894241333,0.39,0.6,1.14,1.34
19.716500997543335,0.58,0.41,1.56,1.71
19.718367099761963,0.33,0.09,2.1,2.12
19.726617097854614,0.02,-0.4,2.58,2.61
19.728512048721313,-0.16,-0.9,2.99,3.12
19.73102617263794,-0.21,-1.26,3.21,3.45
19.733432054519653,-0.2,-1.53,2.89,3.27
19.73567509651184,-0.18,-1.65,2.12,2.69
19.73773503303528,-0.04,-1.57,1.3,2.03
19.739737033843994,0.13,-1.44,0.71,1.61
19.829714059829712,0.12,-1.37,0.44,1.44
19.831676959991455,-0.07,-1.36,0.5,1.45
19.833716869354248,-0.4,-1.34,0.77,1.59
19.843703985214233,-0.78,-1.37,1.06,1.89
19.845563888549805,-1.08,-1.39,1.12,2.08
19.84818410873413,-1.2,-1.36,0.88,2.01
19.850601196289062,-1.2,-1.3,0.47,1.83
19.852742195129395,-1.03,-1.2,-0.03,1.58
19.854680061340332,-0.73,-1.11,-0.44,1.39
19.856755018234253,-0.44,-1.03,-0.76,1.35
19.94818115234375,-0.22,-0.95,-1.02,1.41
19.950289011001587,-0.1,-0.86,-1.15,1.43
19.952315092086792,-0.06,-0.81,-1.21,1.45
19.96024799346924,-0.07,-0.76,-1.29,1.49
19.962132930755615,-0.06,-0.72,-1.36,1.54
19.96471405029297,0.03,-0.67,-1.54,1.67
19.96667718887329,0.17,-0.6,-1.8,1.9
19.968626976013184,0.34,-0.48,-2.08,2.16
19.970465183258057,0.54,-0.31,-2.26,2.34
19.97251009941101,0.77,-0.14,-2.44,2.56
20.063537120819092,0.92,0.02,-2.49,2.65
20.065485954284668,0.98,0.17,-2.38,2.57
20.067620038986206,0.92,0.23,-2.17,2.36
20.07757806777954,0.76,0.23,-1.99,2.14
20.07945704460144,0.63,0.18,-1.85,1.96
20.081690073013306,0.59,0.09,-1.74,1.83
20.08423399925232,0.57,-0.11,-1.53,1.63
20.086143016815186,0.47,-0.35,-1.13,1.27
20.088072061538696,0.32,-0.58,-0.65,0.92
20.090260982513428,0.16,-0.86,-0.16,0.88
20.181326866149902,-0.01,-1.22,0.33,1.26
20.183327198028564,-0.28,-1.71,0.79,1.9
20.185380935668945,-0.84,-2.24,1.18,2.66
20.193819999694824,-1.61,-2.57,1.59,3.42
20.19571590423584,-2.25,-2.54,1.98,3.92
20.19811201095581,-2.25,-2.18,2.16,3.8
20.200203895568848,-1.22,-1.78,1.94,2.9
20.20234489440918,-0.11,-1.31,1.1,1.71
20.204252004623413,0.97,-0.94,0.04,1.35
20.206408977508545,1.88,-0.71,-1.03,2.25
20.299804210662842,2.38,-0.65,-1.55,2.91
20.301778078079224,2.04,-0.58,-1.1,2.38
20.30380392074585,1.17,-0.81,0.0,1.42
20.310443878173828,0.5,-1.2,1.24,1.79
20.312268018722534,0.2,-1.47,2.13,2.59
20.31474018096924,0.21,-1.55,2.42,2.88
20.316914081573486,0.32,-1.51,2.01,2.53
20.318914890289307,0.5,-1.47,1.1,1.9
20.320789098739624,0.94,-1.53,0.27,1.81
20.322996139526367,1.36,-1.59,0.03,2.09
20.41655206680298,1.43,-1.65,0.46,2.23
20.418609142303467,1.19,-1.72,1.16,2.39
20.420363903045654,0.71,-1.84,1.62,2.55
20.427338123321533,0.2,-1.88,1.75,2.57
20.429172039031982,-0.15,-1.85,1.58,2.43
20.431629180908203,-0.31,-1.7,1.21,2.1
20.4342679977417,-0.22,-1.47,0.56,1.58
20.43626594543457,-0.05,-1.21,-0.24,1.23
20.438265085220337,0.07,-0.9,-1.03,1.36
20.44043803215027,0.18,-0.71,-1.86,1.99
20.53273606300354,0.34,-0.7,-2.43,2.55
20.535011053085327,0.36,-0.72,-2.47,2.59
20.53676199913025,0.25,-0.79,-1.63,1.82
20.54229998588562,0.18,-0.92,-0.53,1.07
20.544193029403687,0.12,-0.99,0.18,1.01
20.546255111694336,0.05,-0.93,0.28,0.97
20.54806399345398,0.05,-0.86,-0.11,0.86
20.549880027770996,0.02,-0.78,-0.62,0.99
20.551851987838745,0.01,-0.68,-0.96,1.17
20.5538010597229,-0.01,-0.59,-1.04,1.19
20.648125171661377,-0.08,-0.49,-0.94,1.06
20.650235176086426,-0.03,-0.37,-0.86,0.93
20.65225100517273,0.17,-0.27,-0.94,0.99
20.660097122192383,0.32,-0.12,-0.99,1.04
20.662178993225098,0.4,0.04,-0.98,1.05
20.664124011993408,0.49,0.15,-0.96,1.08
20.666183948516846,0.55,0.21,-0.89,1.06
20.668365001678467,0.64,0.26,-0.77,1.03
20.67046308517456,0.75,0.3,-0.67,1.04
20.67244005203247,0.81,0.36,-0.59,1.06
20.769548892974854,0.81,0.41,-0.42,1.0
20.77161407470703,0.65,0.45,-0.31,0.84
20.773638010025024,0.37,0.45,-0.29,0.65
20.775782108306885,0.2,0.43,-0.32,0.57
20.777881145477295,0.14,0.38,-0.3,0.5
20.792808055877686,0.1,0.37,-0.28,0.47
20.794833183288574,0.09,0.35,-0.23,0.42
20.79671621322632,0.07,0.35,-0.21,0.41
20.798480987548828,-0.05,0.38,-0.21,0.43
20.80020308494568,-0.19,0.39,-0.21,0.48
20.89359188079834,-0.25,0.38,-0.18,0.48
20.895742893218994,-0.22,0.32,-0.08,0.39
20.897423028945923,-0.24,0.32,0.16,0.43
20.911205053329468,-0.29,0.3,0.36,0.55
20.91310405731201,-0.39,0.31,0.49,0.69
20.915411949157715,-0.45,0.3,0.41,0.67
20.91791009902954,-0.23,0.27,0.33,0.48
20.92039394378662,-0.1,0.44,0.26,0.52
20.922343015670776,0.03,0.56,0.12,0.57
20.924589157104492,0.1,0.58,0.12,0.6
21.017385959625244,0.16,0.49,0.39,0.64
21.01965618133545,0.23,0.23,0.95,1.0
21.021496057510376,0.17,-0.04,1.69,1.69
21.02740716934204,-0.03,-0.27,2.24,2.25
21.029237985610962,-0.21,-0.48,2.39,2.44
21.031710147857666,-0.44,-0.69,2.21,2.35
21.033985137939453,-0.62,-0.82,1.8,2.07
21.035880088806152,-0.61,-0.9,1.29,1.68
21.037901878356934,-0.51,-0.94,0.85,1.36
21.03987216949463,-0.52,-0.91,0.52,1.17
21.13305401802063,-0.57,-0.9,0.22,1.08
21.134958028793335,-0.57,-0.95,-0.11,1.11
21.136784076690674,-0.55,-1.07,-0.34,1.25
21.142940998077393,-0.52,-1.24,-0.46,1.42
21.144808053970337,-0.52,-1.39,-0.4,1.53
21.14671301841736,-0.53,-1.54,-0.26,1.64
21.14873504638672,-0.63,-1.65,-0.04,1.76
21.150568962097168,-0.7,-1.7,0.04,1.83
21.15247392654419,-0.63,-1.63,0.05,1.74
21.15439796447754,-0.48,-1.46,-0.13,1.54
21.248072147369385,-0.22,-1.28,-0.39,1.35
21.25003719329834,0.04,-1.13,-0.65,1.3
21.252079010009766,0.17,-0.96,-0.95,1.36
21.26111888885498,0.18,-0.83,-1.28,1.53
21.263004064559937,0.25,-0.84,-1.45,1.69
21.265562057495117,0.27,-0.93,-1.38,1.68
21.26783299446106,0.16,-1.07,-1.01,1.48
21.269719123840332,0.04,-1.21,-0.56,1.33
21.271777153015137,-0.05,-1.33,-0.28,1.36
21.365349054336548,-0.08,-1.37,-0.21,1.38
21.367269039154053,-0.02,-1.36,-0.32,1.39
21.36917495727539,0.2,-1.32,-0.46,1.41
21.3775691986084,0.46,-1.28,-0.51,1.45
21.379481077194214,0.66,-1.25,-0.47,1.48
21.38192892074585,0.73,-1.23,-0.24,1.45
21.384302139282227,0.58,-1.2,0.15,1.34
21.386149883270264,0.38,-1.14,0.42,1.27
21.388182163238525,0.19,-1.07,0.45,1.17
21.390524864196777,0.04,-0.97,0.3,1.01
21.48418092727661,-0.04,-0.81,0.16,0.82
21.48629903793335,0.04,-0.64,0.08,0.64
21.488335132598877,0.18,-0.47,0.13,0.51
21.49416208267212,0.25,-0.32,0.13,0.42
21.49589204788208,0.19,-0.16,-0.02,0.24
21.498058080673218,0.06,-0.01,-0.1,0.11
21.50050401687622,-0.01,0.16,-0.2,0.25
21.502872943878174,-0.07,0.33,-0.33,0.47
21.50474786758423,-0.1,0.46,-0.45,0.65
21.50693416595459,-0.04,0.52,-0.58,0.78
21.60079598426819,0.03,0.51,-0.64,0.81
21.602905988693237,0.07,0.45,-0.54,0.7
21.60491704940796,0.08,0.35,-0.34,0.49
21.61085605621338,0.02,0.29,-0.15,0.32
21.61267614364624,0.0,0.22,-0.07,0.23
21.61514711380005,-0.03,0.13,-0.12,0.17
21.61766815185547,-0.08,0.09,-0.14,0.18
21.61974811553955,-0.13,0.07,-0.13,0.19
21.62155818939209,-0.14,0.09,-0.11,0.19
21.623473167419434,-0.1,0.12,-0.05,0.16
21.71802806854248,-0.07,0.18,0.02,0.19
21.720113039016724,-0.06,0.24,0.05,0.25
21.722043991088867,-0.06,0.29,0.01,0.29
21.727524042129517,-0.07,0.35,-0.07,0.36
21.729323863983154,-0.12,0.45,-0.12,0.48
21.731492042541504,-0.14,0.51,-0.16,0.55
21.733903884887695,-0.18,0.52,-0.18,0.57
21.735738039016724,-0.2,0.51,-0.18,0.57
21.737401962280273,-0.18,0.47,-0.21,0.54
21.739402055740356,-0.15,0.43,-0.19,0.49
21.83353090286255,-0.16,0.37,-0.17,0.43
21.835605144500732,-0.19,0.3,-0.14,0.38
21.837297916412354,-0.19,0.2,-0.02,0.27
21.844340085983276,-0.15,0.09,0.24,0.29
21.84615421295166,-0.19,0.02,0.48,0.51
21.848441123962402,-0.28,-0.06,0.6,0.66
21.850850105285645,-0.42,-0.06,0.57,0.71
21.852930068969727,-0.45,0.0,0.42,0.61
21.854817867279053,-0.32,0.08,0.25,0.41
21.856962203979492,-0.21,0.21,0.07,0.3
21.9509539604187,-0.22,0.34,-0.04,0.4
21.953020095825195,-0.3,0.42,-0.05,0.51
21.955026149749756,-0.23,0.47,-0.05,0.52
21.96104907989502,-0.12,0.56,-0.15,0.59
21.962850093841553,-0.05,0.61,-0.25,0.66
21.964931964874268,-0.05,0.63,-0.3,0.69
21.96708106994629,-0.06,0.54,-0.36,0.65
21.96950387954712,-0.14,0.49,-0.39,0.64
21.971386909484863,-0.22,0.37,-0.37,0.56
21.973483085632324,-0.17,0.28,-0.21,0.38
22.067077159881592,-0.03,0.02,-0.09,0.09
22.06917715072632,0.06,-0.18,0.12,0.22
22.07119607925415,0.17,-0.29,0.36,0.49
22.077912092208862,0.24,-0.33,0.48,0.63
22.079745054244995,0.2,-0.3,0.4,0.53
22.08213996887207,0.11,-0.32,0.05,0.34
22.084391117095947,0.19,-0.4,-0.27,0.51
22.08627414703369,0.31,-0.45,-0.35,0.64
22.088308095932007,0.45,-0.44,-0.21,0.66
22.090240001678467,0.56,-0.45,0.03,0.71
22.184396982192993,0.65,-0.46,0.22,0.82
22.186524868011475,0.69,-0.43,0.23,0.84
22.188541889190674,0.68,-0.38,0.19,0.8
22.19447422027588,0.63,-0.34,0.1,0.72
22.196248054504395,0.55,-0.34,0.07,0.65
22.19816493988037,0.48,-0.34,0.08,0.59
22.200189113616943,0.46,-0.3,0.05,0.55
22.202334880828857,0.5,-0.3,-0.01,0.58
22.204206943511963,0.48,-0.24,-0.1,0.54
22.206350088119507,0.41,-0.16,-0.17,0.47
22.30105710029602,0.35,-0.16,-0.21,0.43
22.303096055984497,0.3,-0.2,-0.26,0.44
22.304838180541992,0.3,-0.3,-0.27,0.5
22.31109619140625,0.3,-0.35,-0.21,0.5
22.31274700164795,0.36,-0.44,-0.08,0.57
22.314733028411865,0.42,-0.53,0.06,0.67
22.31687307357788,0.46,-0.61,0.17,0.78
22.31919002532959,0.49,-0.66,0.2,0.84
22.321027040481567,0.44,-0.7,0.16,0.84
22.322871208190918,0.4,-0.72,0.04,0.82
22.416506052017212,0.38,-0.72,-0.13,0.82
22.418442010879517,0.41,-0.69,-0.26,0.84
22.420300006866455,0.43,-0.63,-0.33,0.83
22.427791118621826,0.44,-0.56,-0.31,0.77
22.42953395843506,0.44,-0.51,-0.23,0.71
22.431812047958374,0.4,-0.44,-0.11,0.6
22.43429207801819,0.35,-0.37,0.01,0.5
22.4363009929657,0.3,-0.27,0.08,0.41
22.438306093215942,0.29,-0.15,0.05,0.33
22.440359115600586,0.33,-0.03,-0.03,0.33
22.533684015274048,0.37,0.1,-0.11,0.39
22.535836219787598,0.44,0.15,-0.19,0.5
22.53785800933838,0.45,0.18,-0.21,0.52
22.54467487335205,0.32,0.26,-0.27,0.49
22.54648494720459,0.15,0.38,-0.41,0.57
22.54891300201416,0.16,0.49,-0.59,0.78
22.551220893859863,0.34,0.5,-0.81,1.01
22.55339288711548,0.49,0.51,-0.96,1.19
22.55544400215149,0.46,0.56,-1.0,1.23
22.557498931884766,0.4,0.53,-0.91,1.12
22.651323080062866,0.35,0.46,-0.67,0.88
22.653436183929443,0.3,0.37,-0.39,0.61
22.655402183532715,0.26,0.3,-0.19,0.44
22.66170907020569,0.24,0.3,-0.1,0.39
22.663533210754395,0.25,0.31,-0.11,0.41
22.665748119354248,0.28,0.34,-0.21,0.48
22.667981147766113,0.28,0.38,-0.24,0.52
22.670073986053467,0.24,0.44,-0.18,0.53
22.6721830368042,0.21,0.47,-0.1,0.52
22.67441701889038,0.17,0.51,-0.03,0.53
22.76681900024414,0.13,0.55,-0.06,0.56
22.76889204978943,0.11,0.6,-0.11,0.61
22.77097201347351,0.14,0.64,-0.16,0.67
22.77855110168457,0.16,0.6,-0.17,0.64
22.780396938323975,0.13,0.57,-0.15,0.6
22.78290104866028,0.07,0.52,-0.07,0.52
22.785253047943115,0.0,0.44,-0.01,0.44
22.78725290298462,0.0,0.34,0.02,0.34
22.78906488418579,0.02,0.26,0.01,0.26
22.79110288619995,0.06,0.19,-0.01,0.19
22.883100032806396,0.11,0.15,0.01,0.18
22.885179042816162,0.2,0.09,0.04,0.22
22.887212991714478,0.32,0.06,0.06,0.33
22.89491605758667,0.39,-0.07,0.03,0.39
22.89679503440857,0.36,-0.15,0.16,0.42
22.89916205406189,0.28,-0.2,0.28,0.44
22.901280879974365,0.26,-0.25,0.36,0.5
22.90367102622986,0.32,-0.32,0.4,0.6
22.90572500228882,0.34,-0.34,0.45,0.65
22.9077889919281,0.26,-0.27,0.55,0.66
22.999485969543457,0.15,-0.15,0.53,0.57
23.001535892486572,0.08,-0.06,0.31,0.32
23.003616094589233,0.03,-0.04,0.02,0.05
23.01209592819214,-0.04,-0.05,-0.15,0.16
23.01397705078125,-0.14,-0.09,-0.31,0.35
23.016391038894653,-0.27,-0.07,-0.4,0.48
23.018567085266113,-0.24,-0.18,-0.41,0.5
23.02095603942871,-0.13,-0.42,-0.33,0.54
23.022908210754395,-0.14,-0.62,-0.08,0.64
23.025230884552002,-0.2,-0.8,0.22,0.85
23.11674213409424,-0.29,-0.93,0.34,1.03
23.119080066680908,-0.4,-1.03,0.29,1.14
23.12092399597168,-0.51,-1.05,0.2,1.18
23.128308057785034,-0.58,-1.0,0.02,1.15
23.130166053771973,-0.62,-0.93,-0.14,1.12
23.132561206817627,-0.64,-0.9,-0.34,1.15
23.13479518890381,-0.69,-0.81,-0.38,1.12
23.136777877807617,-0.73,-0.77,-0.33,1.11
23.138885974884033,-0.78,-0.74,-0.21,1.09
23.140841007232666,-0.88,-0.62,-0.11,1.08
23.2324481010437,-0.96,-0.55,-0.14,1.11
23.234549045562744,-0.92,-0.47,-0.28,1.07
23.236599922180176,-0.82,-0.38,-0.44,1.0
23.245087146759033,-0.7,-0.29,-0.56,0.94
23.246992111206055,-0.61,-0.26,-0.64,0.92
23.24932289123535,-0.53,-0.19,-0.67,0.87
23.251641988754272,-0.47,-0.13,-0.65,0.81
23.254106998443604,-0.42,-0.1,-0.68,0.8
23.25609588623047,-0.38,-0.14,-0.72,0.82
23.25819492340088,-0.31,-0.25,-0.63,0.74
23.349090099334717,-0.19,-0.33,-0.4,0.55
23.35140299797058,-0.22,-0.38,-0.11,0.45
23.353236198425293,-0.34,-0.48,0.11,0.59
23.362348079681396,-0.46,-0.55,0.27,0.76
23.364230155944824,-0.51,-0.6,0.42,0.89
23.366780996322632,-0.54,-0.57,0.51,0.93
23.368869066238403,-0.54,-0.49,0.54,0.9
23.370718955993652,-0.52,-0.36,0.44,0.77
23.372692108154297,-0.47,-0.23,0.25,0.57
23.37469506263733,-0.43,-0.13,0.04,0.45
23.464792013168335,-0.41,-0.08,-0.13,0.43
23.466864109039307,-0.36,0.0,-0.27,0.45
23.468898057937622,-0.29,0.06,-0.41,0.5
23.479026079177856,-0.25,0.09,-0.48,0.54
23.480931043624878,-0.22,0.14,-0.51,0.57
23.483034133911133,-0.2,0.19,-0.51,0.57
23.485038995742798,-0.18,0.24,-0.43,0.52
23.487241983413696,-0.05,0.2,-0.37,0.42
23.489063024520874,0.07,0.2,-0.33,0.39
23.491034030914307,0.13,0.26,-0.22,0.36
23.57906699180603,0.12,0.31,-0.09,0.34
23.580997943878174,0.14,0.34,-0.02,0.36
23.582966089248657,0.18,0.37,0.02,0.41
23.59561586380005,0.24,0.38,-0.01,0.44
23.597508907318115,0.27,0.37,-0.05,0.46
23.599807024002075,0.25,0.37,-0.05,0.44
23.60164213180542,0.18,0.37,-0.01,0.41
23.603623867034912,0.14,0.37,0.07,0.4
23.605409145355225,0.08,0.34,0.18,0.39
23.607580184936523,0.01,0.3,0.3,0.42
23.69588303565979,-0.04,0.27,0.39,0.47
23.697794914245605,-0.04,0.27,0.46,0.53
23.699685096740723,-0.02,0.25,0.44,0.5
23.712557077407837,-0.05,0.26,0.34,0.43
23.714452028274536,-0.1,0.29,0.21,0.37
23.71668004989624,-0.14,0.3,0.07,0.33
23.71881604194641,-0.15,0.3,-0.04,0.33
23.720655918121338,-0.13,0.29,-0.07,0.32
23.72247314453125,-0.17,0.29,-0.09,0.34
23.724349975585938,-0.23,0.27,-0.12,0.37
23.811342000961304,-0.35,0.26,-0.14,0.45
23.813443183898926,-0.47,0.28,-0.24,0.59
23.815425872802734,-0.54,0.34,-0.35,0.72
23.829340934753418,-0.55,0.43,-0.39,0.79
23.831231117248535,-0.5,0.44,-0.42,0.78
23.833681106567383,-0.45,0.39,-0.35,0.69
23.836005210876465,-0.44,0.29,-0.18,0.55
23.838407039642334,-0.49,0.19,0.08,0.53
23.840497970581055,-0.5,0.09,0.34,0.61
23.842792987823486,-0.51,0.06,0.54,0.74
23.929582118988037,-0.49,0.03,0.58,0.75
23.93183398246765,-0.41,0.05,0.47,0.62
23.933656215667725,-0.33,0.13,0.24,0.42
23.94568920135498,-0.28,0.22,0.02,0.35
23.947583198547363,-0.23,0.28,-0.05,0.36
23.95010805130005,-0.16,0.33,-0.02,0.36
23.95215606689453,-0.14,0.39,0.03,0.41
23.954025983810425,-0.07,0.42,0.05,0.42
23.956027030944824,0.01,0.38,0.0,0.38
23.9581298828125,0.1,0.37,-0.12,0.4
24.043214082717896,0.14,0.36,-0.26,0.46
24.045324087142944,0.12,0.31,-0.28,0.43
24.047348022460938,0.04,0.23,-0.21,0.31
24.062923908233643,-0.07,0.1,-0.05,0.13
24.064774990081787,-0.1,-0.07,0.14,0.18
24.067191123962402,-0.09,-0.31,0.33,0.46
24.069377899169922,-0.02,-0.56,0.54,0.77
24.071446895599365,-0.02,-0.73,0.8,1.08
24.073421001434326,-0.17,-0.79,1.04,1.31
24.07563018798828,-0.39,-0.8,1.18,1.47
24.160073041915894,-0.55,-0.77,1.07,1.42
24.16236114501953,-0.61,-0.62,0.67,1.09
24.164183139801025,-0.48,-0.46,0.09,0.67
24.17972993850708,-0.33,-0.29,-0.31,0.53
24.181721210479736,-0.21,-0.17,-0.53,0.59
24.184214115142822,-0.16,-0.11,-0.58,0.61
24.18659806251526,-0.1,-0.06,-0.57,0.58
24.188994884490967,-0.04,-0.03,-0.6,0.6
24.19091796875,0.02,0.0,-0.68,0.68
24.19344997406006,0.12,-0.03,-0.79,0.79
24.278141021728516,0.3,-0.14,-0.81,0.87
24.280441999435425,0.45,-0.26,-0.72,0.88
24.282269954681396,0.61,-0.37,-0.48,0.85
24.296593189239502,0.72,-0.6,-0.23,0.96
24.298502922058105,0.73,-0.88,-0.07,1.14
24.30097007751465,0.6,-1.1,0.08,1.25
24.303292989730835,0.42,-1.23,0.28,1.32
24.305152893066406,0.2,-1.34,0.5,1.44
24.307148933410645,-0.04,-1.34,0.64,1.48
24.309321880340576,-0.18,-1.28,0.64,1.44
24.393511056900024,-0.18,-1.18,0.46,1.27
24.395790100097656,-0.11,-1.03,0.17,1.04
24.397622108459473,0.0,-0.86,-0.18,0.87
24.413050174713135,0.11,-0.76,-0.47,0.9
24.41492986679077,0.13,-0.63,-0.63,0.9
24.417120933532715,0.09,-0.48,-0.71,0.86
24.41943907737732,0.09,-0.39,-0.86,0.94
24.421523094177246,0.1,-0.3,-0.97,1.02
24.423398971557617,0.23,-0.2,-1.01,1.05
24.425716876983643,0.4,-0.14,-1.0,1.08
24.50927209854126,0.43,-0.1,-0.77,0.88
24.511300086975098,0.43,-0.08,-0.47,0.64
24.513226985931396,0.45,-0.09,-0.16,0.48
24.529172897338867,0.45,-0.05,0.07,0.45
24.53098201751709,0.48,-0.02,0.18,0.51
24.53321099281311,0.53,0.01,0.2,0.56
24.535731077194214,0.58,0.04,0.15,0.6
24.537536144256592,0.63,0.04,0.07,0.63
24.53933811187744,0.61,0.08,0.01,0.61
24.541396141052246,0.6,0.04,-0.02,0.6
24.624864101409912,0.54,0.04,-0.02,0.54
24.62674617767334,0.44,0.02,-0.07,0.44
24.62858819961548,0.35,0.0,-0.11,0.36
24.630642890930176,0.3,-0.01,-0.18,0.35
24.633002042770386,0.27,-0.03,-0.2,0.33
24.635406017303467,0.21,-0.01,-0.16,0.26
24.63790202140808,0.14,0.04,-0.14,0.2
24.639774084091187,0.12,0.09,-0.19,0.24
24.64186406135559,0.08,0.11,-0.29,0.32
24.6439471244812,0.02,0.13,-0.36,0.38
24.72630500793457,-0.05,0.16,-0.37,0.4
24.728415966033936,-0.07,0.14,-0.36,0.39
24.730213165283203,-0.06,0.13,-0.24,0.27
24.744538068771362,-0.03,0.14,-0.04,0.14
24.746461868286133,-0.04,0.12,0.1,0.16
24.748405933380127,-0.02,0.12,0.14,0.18
24.750071048736572,-0.02,0.14,0.06,0.15
24.751912117004395,0.01,0.11,-0.03,0.11
24.753804206848145,-0.01,0.06,-0.04,0.07
24.755701065063477,-0.03,0.02,0.02,0.04
24.837343215942383,-0.07,0.0,0.16,0.17
24.839592933654785,-0.11,-0.03,0.27,0.29
24.841483116149902,-0.16,-0.05,0.31,0.35
24.84448504447937,-0.15,-0.06,0.27,0.31
24.846297025680542,-0.05,-0.08,0.13,0.16
24.86113214492798,0.03,-0.13,0.04,0.13
24.863076210021973,0.0,-0.09,0.06,0.1
24.865154027938843,-0.05,-0.06,0.1,0.12
24.867050170898438,-0.01,-0.04,0.21,0.21
24.868954181671143,0.21,-0.12,0.3,0.38
24.950095176696777,0.43,-0.2,0.42,0.63
24.95237898826599,0.47,-0.26,0.5,0.73
24.954106092453003,0.35,-0.19,0.6,0.72
24.962743043899536,0.21,-0.2,0.41,0.5
24.964592933654785,0.11,-0.21,0.15,0.28
24.967012882232666,0.09,-0.22,-0.09,0.25
24.969423055648804,0.15,-0.23,-0.31,0.41
24.97185206413269,0.25,-0.25,-0.43,0.55
24.97381901741028,0.31,-0.25,-0.45,0.6
24.976027965545654,0.29,-0.22,-0.53,0.64
25.056614875793457,0.23,-0.21,-0.71,0.77
25.058969020843506,0.15,-0.21,-0.88,0.91
25.06112813949585,0.05,-0.24,-0.91,0.94
25.063032150268555,0.0,-0.3,-0.8,0.85
25.077863216400146,-0.04,-0.35,-0.6,0.69
25.079828023910522,-0.05,-0.43,-0.39,0.58
25.08195686340332,-0.1,-0.44,-0.19,0.48
25.08381414413452,-0.2,-0.4,-0.18,0.48
25.08565616607666,-0.25,-0.3,-0.35,0.52
25.087568044662476,-0.29,-0.17,-0.63,0.71
25.167083024978638,-0.31,-0.01,-0.78,0.83
25.169131994247437,-0.3,0.1,-0.76,0.82
25.170905113220215,-0.28,0.18,-0.65,0.73
25.179362058639526,-0.32,0.2,-0.39,0.54
25.18122100830078,-0.39,0.18,-0.11,0.44
25.18373203277588,-0.45,0.13,0.19,0.5
25.185993194580078,-0.49,0.15,0.37,0.63
25.188382148742676,-0.4,0.19,0.26,0.51
25.19041109085083,-0.27,0.26,-0.05,0.37
25.19241714477539,-0.13,0.28,-0.27,0.41
25.271611213684082,-0.04,0.22,-0.27,0.35
25.27367901802063,-0.01,0.12,-0.15,0.19
25.27575707435608,-0.07,0.01,0.01,0.07
25.279340982437134,-0.2,-0.04,0.09,0.22
25.28103804588318,-0.25,-0.14,0.09,0.3
25.294528007507324,-0.34,-0.17,-0.02,0.38
25.296481132507324,-0.49,-0.08,-0.14,0.51
25.298375129699707,-0.61,0.04,-0.27,0.66
25.30037498474121,-0.7,0.17,-0.36,0.8
25.30222511291504,-0.6,0.19,-0.42,0.75
25.38652801513672,-0.47,0.15,-0.38,0.62
25.388824939727783,-0.42,0.19,-0.25,0.52
25.390588998794556,-0.4,0.24,-0.16,0.49
25.39583396911621,-0.37,0.27,-0.06,0.46
25.397608995437622,-0.31,0.3,0.0,0.43
25.40004587173462,-0.23,0.32,0.06,0.39
25.402400016784668,-0.13,0.35,0.11,0.38
25.40482807159424,-0.06,0.38,0.18,0.42
25.406715869903564,-0.04,0.41,0.19,0.45
25.40859889984131,-0.06,0.41,0.15,0.44
25.491868019104004,-0.12,0.41,0.09,0.43
25.49391222000122,-0.17,0.4,0.09,0.44
25.49561905860901,-0.2,0.36,0.08,0.41
25.497606992721558,-0.21,0.35,0.08,0.41
25.499518871307373,-0.19,0.36,0.04,0.4
25.501750946044922,-0.16,0.36,-0.06,0.39
25.503818035125732,-0.12,0.35,-0.14,0.39
25.50587511062622,-0.13,0.36,-0.15,0.41
25.507973194122314,-0.14,0.33,-0.08,0.36
25.51036310195923,-0.18,0.27,0.01,0.32
25.59315299987793,-0.23,0.22,0.12,0.34
25.595453023910522,-0.2,0.15,0.16,0.29
25.597187042236328,-0.17,0.12,0.16,0.26
25.613234043121338,-0.15,0.11,0.09,0.2
25.615097045898438,-0.14,0.13,0.01,0.19
25.617467880249023,-0.15,0.19,-0.06,0.24
25.619980096817017,-0.18,0.28,-0.07,0.34
25.621859073638916,-0.2,0.31,-0.09,0.37
25.6239070892334,-0.23,0.35,-0.08,0.42
25.626047134399414,-0.28,0.34,-0.09,0.44
25.70703887939453,-0.29,0.27,-0.12,0.41
25.70902919769287,-0.29,0.17,-0.12,0.35
25.710908889770508,-0.3,0.09,-0.09,0.32
25.712876081466675,-0.33,0.06,-0.03,0.33
25.728048086166382,-0.34,0.04,0.01,0.34
25.729960918426514,-0.3,-0.02,0.0,0.3
25.73198103904724,-0.27,-0.06,0.03,0.27
25.733858108520508,-0.29,-0.03,0.02,0.29
25.735867023468018,-0.31,0.01,-0.04,0.31
25.737740993499756,-0.28,0.07,-0.12,0.31
25.81801199913025,-0.13,0.01,-0.17,0.21
25.820192098617554,-0.03,-0.04,-0.21,0.21
25.82181692123413,0.0,-0.07,-0.13,0.14
25.829689979553223,0.01,-0.08,-0.07,0.1
25.831515073776245,0.04,-0.11,-0.02,0.11
25.83390522003174,0.04,-0.17,0.03,0.17
25.836029052734375,0.02,-0.21,0.04,0.21
25.837850093841553,-0.01,-0.23,0.04,0.23
25.839765071868896,0.01,-0.27,0.05,0.27
25.841625213623047,0.01,-0.31,0.11,0.32
25.84384799003601,0.01,-0.34,0.14,0.36
25.923014163970947,0.0,-0.39,0.18,0.42
25.925180912017822,-0.04,-0.43,0.21,0.48
25.927008152008057,-0.09,-0.42,0.17,0.46
25.929582118988037,-0.14,-0.39,0.08,0.42
25.945080041885376,-0.17,-0.31,-0.07,0.36
25.947144985198975,-0.16,-0.25,-0.28,0.4
25.94911813735962,-0.09,-0.26,-0.38,0.46
25.95097303390503,-0.03,-0.28,-0.48,0.55
25.95284605026245,-0.05,-0.27,-0.56,0.62
26.031917095184326,-0.04,-0.27,-0.61,0.66
26.034152030944824,-0.06,-0.28,-0.63,0.69
26.03587508201599,-0.08,-0.26,-0.64,0.69
26.04694104194641,-0.06,-0.25,-0.59,0.64
26.048700094223022,0.03,-0.25,-0.53,0.58
26.05083417892456,0.13,-0.26,-0.44,0.52
26.053217887878418,0.25,-0.31,-0.33,0.51
26.055625915527344,0.38,-0.38,-0.19,0.57
26.057494163513184,0.42,-0.44,-0.05,0.61
26.059872150421143,0.35,-0.45,0.03,0.57
26.138495922088623,0.25,-0.49,0.21,0.58
26.14060115814209,0.11,-0.47,0.42,0.63
26.142597198486328,0.05,-0.44,0.53,0.69
26.146324157714844,0.03,-0.37,0.49,0.61
26.14812994003296,0.0,-0.26,0.39,0.46
26.161813020706177,0.0,-0.14,0.27,0.3
26.16371488571167,0.05,-0.11,0.16,0.2
26.16568613052368,0.03,-0.07,0.15,0.16
26.167639017105103,0.0,-0.04,0.09,0.09
26.16945791244507,-0.05,0.01,-0.02,0.05
26.248104095458984,-0.02,0.05,-0.18,0.18
26.250405073165894,0.07,0.03,-0.35,0.35
26.252140998840332,0.11,0.05,-0.39,0.4
26.263176918029785,0.11,0.07,-0.3,0.32
26.26498508453369,0.13,0.1,-0.13,0.2
26.266965866088867,0.16,0.1,0.0,0.18
26.269136905670166,0.21,0.1,0.08,0.24
26.27135705947876,0.27,0.09,0.13,0.31
26.273283004760742,0.31,0.16,0.12,0.36
26.27534818649292,0.34,0.24,0.04,0.41
26.353755950927734,0.37,0.3,-0.05,0.47
26.35590887069702,0.42,0.32,-0.11,0.53
26.357959032058716,0.4,0.35,-0.08,0.53
26.3631010055542,0.25,0.37,-0.01,0.44
26.364832878112793,0.49,0.46,-0.01,0.67
26.366939067840576,0.61,0.64,-0.18,0.9
26.369343996047974,0.65,0.76,-0.47,1.1
26.371767044067383,0.62,0.88,-0.73,1.3
26.373640060424805,0.56,0.94,-0.8,1.35
26.375794887542725,0.5,0.92,-0.66,1.23
26.45318603515625,0.42,0.9,-0.52,1.12
26.455201148986816,0.36,0.9,-0.41,1.05
26.457146167755127,0.31,0.84,-0.38,0.97
26.46304988861084,0.23,0.83,-0.38,0.94
26.46479892730713,0.12,0.82,-0.41,0.92
26.467000007629395,-0.01,0.79,-0.33,0.85
26.469521045684814,-0.16,0.76,-0.18,0.79
26.471572875976562,-0.27,0.75,-0.14,0.8
26.47349214553833,-0.29,0.65,-0.16,0.72
26.47557020187378,-0.1,0.5,-0.28,0.58
26.554448127746582,0.14,0.34,-0.37,0.52
26.556575059890747,0.3,0.23,-0.23,0.44
26.558593034744263,0.33,0.13,0.11,0.37
26.564815044403076,0.31,0.02,0.42,0.52
26.566707134246826,0.27,-0.06,0.58,0.64
26.578691005706787,0.22,-0.12,0.54,0.59
26.58063316345215,0.29,-0.15,0.43,0.53
26.582762002944946,0.35,-0.17,0.34,0.51
26.584848880767822,0.4,-0.2,0.3,0.53
26.58676815032959,0.38,-0.21,0.33,0.54
26.668227195739746,0.27,-0.15,0.29,0.42
26.6705060005188,0.29,-0.19,0.1,0.36
26.6722469329834,0.35,-0.17,-0.14,0.41
26.680033206939697,0.44,-0.14,-0.36,0.58
26.681894063949585,0.53,-0.12,-0.46,0.71
26.684271097183228,0.58,-0.12,-0.44,0.73
26.686320066452026,0.57,-0.09,-0.32,0.65
26.68865394592285,0.54,-0.1,-0.17,0.57
26.690710067749023,0.49,-0.12,-0.09,0.51
26.69295907020569,0.42,-0.13,-0.08,0.44
26.773704051971436,0.39,-0.14,-0.15,0.44
26.775599002838135,0.37,-0.15,-0.26,0.47
26.77761697769165,0.38,-0.21,-0.34,0.55
26.77987003326416,0.36,-0.27,-0.34,0.56
26.79542112350464,0.26,-0.31,-0.22,0.46
26.797393083572388,0.14,-0.39,-0.09,0.42
26.799360036849976,0.04,-0.45,-0.03,0.45
26.801331996917725,-0.04,-0.51,-0.04,0.51
26.803247928619385,-0.15,-0.55,-0.04,0.57
26.805044174194336,-0.27,-0.5,0.02,0.56
26.882741928100586,-0.33,-0.38,0.14,0.52
26.88497018814087,-0.28,-0.25,0.0,0.37
26.88671112060547,-0.2,-0.19,-0.15,0.31
26.896932125091553,-0.22,-0.11,-0.25,0.35
26.89881420135498,-0.31,-0.06,-0.28,0.42
26.901292085647583,-0.42,0.01,-0.17,0.45
26.90373706817627,-0.45,0.1,-0.08,0.46
26.905694007873535,-0.57,0.13,-0.06,0.58
26.9076030254364,-0.65,0.12,-0.09,0.66
26.90959596633911,-0.67,0.1,-0.16,0.69
26.98744821548462,-0.61,0.08,-0.15,0.63
26.989567041397095,-0.52,0.12,-0.03,0.53
26.991600036621094,-0.38,0.14,0.12,0.42
26.996828079223633,-0.21,0.17,0.19,0.33
26.998653888702393,-0.09,0.18,0.22,0.29
27.00103187561035,-0.03,0.2,0.16,0.25
27.003371000289917,0.02,0.21,0.09,0.22
27.005717039108276,0.04,0.22,0.03,0.22
27.00765109062195,-0.01,0.25,-0.08,0.26
27.009721994400024,-0.07,0.24,-0.11,0.27
27.08705711364746,-0.12,0.24,-0.17,0.31
27.089099884033203,-0.2,0.28,-0.2,0.39
27.091145992279053,-0.26,0.29,-0.27,0.47
27.096760034561157,-0.32,0.26,-0.33,0.52
27.098581075668335,-0.36,0.25,-0.36,0.56
27.101076126098633,-0.42,0.28,-0.37,0.62
27.103507041931152,-0.45,0.34,-0.3,0.63
27.10555410385132,-0.38,0.38,-0.24,0.58
27.10742998123169,-0.39,0.42,-0.15,0.59
27.10944104194641,-0.46,0.44,-0.01,0.63
27.186199188232422,-0.5,0.47,0.07,0.68
27.188302040100098,-0.54,0.49,-0.02,0.72
27.19035005569458,-0.55,0.52,-0.21,0.78
27.197039127349854,-0.56,0.53,-0.37,0.85
27.198901176452637,-0.58,0.57,-0.38,0.89
27.201200008392334,-0.58,0.56,-0.25,0.84
27.203327178955078,-0.58,0.54,-0.23,0.82
27.205116033554077,-0.54,0.55,-0.19,0.79
27.207139015197754,-0.42,0.5,-0.14,0.66
27.209134101867676,-0.31,0.44,0.03,0.53
27.28540802001953,-0.25,0.38,0.25,0.51
27.287545204162598,-0.19,0.26,0.42,0.52
27.289539098739624,-0.19,0.15,0.52,0.57
27.296864986419678,-0.21,0.07,0.53,0.57
27.298614025115967,-0.2,-0.02,0.46,0.5
27.30064296722412,-0.18,-0.08,0.47,0.5
27.302719116210938,-0.15,-0.14,0.54,0.57
27.305065155029297,-0.15,-0.2,0.7,0.74
27.3068790435791,-0.18,-0.27,0.88,0.93
27.308960914611816,-0.21,-0.26,0.94,0.99
27.38590097427368,-0.26,-0.15,0.8,0.85
27.387956142425537,-0.26,-0.03,0.4,0.47
27.38973307609558,-0.11,0.0,-0.13,0.17
27.397248029708862,0.05,0.05,-0.65,0.65
27.39914107322693,0.15,0.08,-0.99,1.0
27.401580095291138,0.15,0.13,-1.06,1.07
27.40353488922119,0.16,0.13,-0.88,0.9
27.405366897583008,0.26,-0.06,-0.58,0.63
27.407358169555664,0.28,-0.25,-0.16,0.4
27.409396171569824,0.18,-0.44,0.29,0.55
27.485025882720947,0.05,-0.58,0.74,0.94
27.48720407485962,-0.05,-0.69,0.96,1.18
27.48901891708374,-0.03,-0.79,1.07,1.33
27.49572515487671,0.01,-0.9,1.06,1.39
27.497526168823242,0.04,-0.94,1.08,1.43
27.499524116516113,0.05,-0.95,1.07,1.43
27.501245975494385,0.0,-0.95,1.06,1.42
27.503057956695557,-0.02,-0.94,0.99,1.36
27.504908084869385,0.01,-0.91,0.86,1.25
27.506651878356934,0.11,-0.91,0.72,1.16
27.582758903503418,0.22,-0.87,0.55,1.05
27.584904193878174,0.34,-0.8,0.36,0.94
27.586669921875,0.43,-0.7,0.13,0.83
27.59605121612549,0.47,-0.56,-0.16,0.74
27.598013877868652,0.49,-0.41,-0.48,0.79
27.599976062774658,0.54,-0.27,-0.75,0.96
27.60187292098999,0.53,-0.19,-0.87,1.03
27.603905200958252,0.46,-0.13,-0.93,1.04
27.60578489303589,0.39,-0.19,-0.89,0.99
27.607656002044678,0.23,-0.25,-0.81,0.87
27.683315992355347,0.08,-0.33,-0.66,0.74
27.685501098632812,-0.03,-0.39,-0.5,0.63
27.687329053878784,-0.04,-0.47,-0.34,0.58
27.697571992874146,-0.01,-0.51,-0.28,0.58
27.699395179748535,0.08,-0.52,-0.34,0.62
27.701791048049927,0.18,-0.5,-0.43,0.68
27.70429801940918,0.27,-0.47,-0.52,0.75
27.70671796798706,0.33,-0.45,-0.59,0.81
27.70924186706543,0.34,-0.44,-0.64,0.84
27.71187114715576,0.35,-0.48,-0.7,0.91
27.7859148979187,0.29,-0.53,-0.74,0.95
27.788280963897705,0.17,-0.56,-0.73,0.93
27.790136098861694,0.11,-0.6,-0.81,1.01
27.795784950256348,0.09,-0.63,-0.75,0.98
27.79770302772522,0.15,-0.62,-0.71,0.95
27.799593925476074,0.23,-0.59,-0.85,1.05
27.801595211029053,0.19,-0.4,-1.35,1.42
27.80343198776245,-0.01,-0.15,-2.03,2.03
27.80527114868164,-0.22,0.15,-2.48,2.49
27.8072190284729,-0.35,0.39,-2.36,2.41
27.882097005844116,-0.31,0.53,-1.65,1.76
27.884207010269165,-0.19,0.62,-0.66,0.92
27.885991096496582,0.02,0.67,0.2,0.69
27.896018981933594,0.33,0.53,0.71,0.94
27.897938013076782,0.51,0.48,1.0,1.22
27.90003800392151,0.64,0.43,1.24,1.46
27.902021884918213,0.71,0.3,1.39,1.58
27.903860092163086,0.68,0.18,1.55,1.7
27.905683994293213,0.6,0.1,1.62,1.73
27.90754008293152,0.59,0.0,1.45,1.56
27.983299016952515,0.65,-0.05,1.07,1.25
27.985612869262695,0.74,-0.04,0.76,1.06
27.98745608329773,0.84,-0.11,0.67,1.08
27.997498035430908,0.78,-0.13,0.8,1.12
27.99940299987793,0.56,-0.14,0.84,1.01
28.001883029937744,0.29,-0.11,0.68,0.74
28.004405975341797,0.09,-0.01,0.33,0.34
28.006300926208496,0.02,0.05,-0.14,0.15
28.008359909057617,-0.08,0.09,-0.39,0.4
28.01054096221924,-0.15,0.08,-0.36,0.39
28.08573603630066,-0.14,-0.02,-0.2,0.24
28.08785915374756,-0.15,-0.05,-0.08,0.17
28.089816093444824,-0.15,-0.13,0.02,0.19
28.097362995147705,-0.13,-0.19,0.06,0.23
28.099247932434082,-0.14,-0.16,-0.08,0.22
28.10151195526123,-0.11,-0.17,-0.24,0.31
28.103841066360474,-0.05,-0.16,-0.41,0.44
28.106257915496826,0.07,-0.2,-0.47,0.51
28.108325958251953,0.23,-0.31,-0.35,0.52
28.110432147979736,0.26,-0.36,-0.03,0.44
28.184853076934814,0.28,-0.39,0.28,0.55
28.18686008453369,0.32,-0.39,0.52,0.72
28.18880796432495,0.42,-0.29,0.28,0.58
28.19813299179077,0.51,-0.17,-0.42,0.68
28.200096130371094,0.59,-0.01,-1.07,1.22
28.20259714126587,0.67,0.16,-1.37,1.53
28.204959869384766,0.77,0.22,-1.22,1.45
28.207287073135376,0.82,0.24,-0.8,1.17
28.209370136260986,0.77,0.18,-0.37,0.87
28.21203899383545,0.65,0.11,-0.1,0.66
28.285982131958008,0.48,0.03,0.0,0.48
28.288291931152344,0.41,-0.09,0.02,0.42
28.290106058120728,0.39,-0.19,0.11,0.44
28.297296047210693,0.39,-0.28,0.16,0.5
28.299038887023926,0.33,-0.42,0.2,0.57
28.301280975341797,0.17,-0.47,0.3,0.58
28.303728103637695,0.04,-0.52,0.41,0.66
28.305639028549194,-0.06,-0.55,0.65,0.85
28.30767798423767,-0.16,-0.54,0.86,1.02
28.309712886810303,-0.26,-0.53,0.91,1.08
28.38414716720581,-0.39,-0.44,0.72,0.92
28.386165142059326,-0.47,-0.36,0.29,0.65
28.38824987411499,-0.44,-0.25,-0.16,0.53
28.397473096847534,-0.34,-0.19,-0.63,0.74
28.39936399459839,-0.31,-0.16,-1.04,1.09
28.401817083358765,-0.31,-0.2,-1.26,1.31
28.40386199951172,-0.36,-0.3,-1.22,1.3
28.4062340259552,-0.39,-0.41,-0.89,1.05
28.40829300880432,-0.38,-0.54,-0.6,0.89
28.410279989242554,-0.37,-0.66,-0.49,0.9
28.485354900360107,-0.43,-0.75,-0.57,1.03
28.48747205734253,-0.45,-0.82,-0.73,1.18
28.48948907852173,-0.49,-0.83,-0.82,1.26
28.49752187728882,-0.51,-0.78,-0.85,1.26
28.499183177947998,-0.51,-0.72,-0.79,1.18
28.501216888427734,-0.52,-0.66,-0.73,1.11
28.503532886505127,-0.52,-0.67,-0.72,1.11
28.50540590286255,-0.59,-0.65,-0.67,1.1
28.507705211639404,-0.61,-0.68,-0.63,1.1
28.509747982025146,-0.63,-0.67,-0.54,1.06
28.58452320098877,-0.58,-0.62,-0.4,0.93
28.58654808998108,-0.42,-0.59,-0.25,0.76
28.58853507041931,-0.29,-0.55,-0.13,0.63
28.597508907318115,-0.23,-0.58,-0.04,0.62
28.599387168884277,-0.29,-0.59,0.08,0.66
28.601940155029297,-0.36,-0.55,0.06,0.66
28.604201078414917,-0.33,-0.53,-0.11,0.63
28.60599398612976,-0.24,-0.53,-0.29,0.65
28.60768699645996,-0.14,-0.53,-0.34,0.64
28.609561920166016,-0.04,-0.55,-0.13,0.56
28.68354606628418,-0.03,-0.49,0.17,0.51
28.685615062713623,-0.04,-0.45,0.3,0.54
28.687443017959595,-0.09,-0.42,0.15,0.45
28.697643041610718,-0.15,-0.35,-0.13,0.4
28.69942808151245,-0.15,-0.29,-0.38,0.5
28.70168113708496,-0.11,-0.21,-0.4,0.46
28.70386004447937,-0.12,-0.14,-0.21,0.27
28.706278085708618,-0.21,-0.05,0.0,0.21
28.70813798904419,-0.27,-0.02,0.09,0.28
28.710203170776367,-0.3,0.01,0.11,0.31
28.783565044403076,-0.34,0.04,0.12,0.36
28.785552978515625,-0.37,0.09,0.19,0.42
28.787621021270752,-0.41,0.13,0.31,0.53
28.79765796661377,-0.4,0.15,0.42,0.59
28.799499034881592,-0.36,0.19,0.48,0.62
28.8020601272583,-0.32,0.26,0.47,0.62
28.804203033447266,-0.25,0.3,0.43,0.58
28.806196212768555,-0.19,0.33,0.44,0.58
28.807971954345703,-0.15,0.32,0.56,0.66
28.809931993484497,-0.14,0.29,0.74,0.8
28.88332986831665,-0.17,0.31,0.85,0.92
28.885364055633545,-0.15,0.31,0.82,0.88
28.887296199798584,-0.08,0.27,0.68,0.73
28.89772319793701,-0.01,0.24,0.52,0.57
28.899580001831055,0.03,0.2,0.4,0.44
28.90194797515869,0.01,0.15,0.36,0.39
28.904239177703857,-0.07,0.09,0.38,0.39
28.905986070632935,-0.18,0.07,0.36,0.4
28.908027172088623,-0.25,0.08,0.22,0.34
28.910113096237183,-0.23,0.1,0.01,0.25
28.983349084854126,-0.18,0.14,-0.13,0.26
28.985460996627808,-0.15,0.19,-0.15,0.28
28.9874370098114,-0.08,0.18,-0.06,0.2
28.997749090194702,-0.03,0.16,0.07,0.17
28.999608993530273,-0.01,0.11,0.16,0.19
29.002091884613037,-0.04,0.06,0.18,0.19
29.00393509864807,-0.07,0.01,0.18,0.19
29.005728006362915,-0.09,-0.03,0.2,0.22
29.007760047912598,-0.11,-0.02,0.19,0.22
29.009562969207764,-0.1,0.02,0.07,0.12
29.08234405517578,-0.08,0.08,-0.15,0.18
29.084442138671875,-0.11,0.09,-0.31,0.34
29.08625602722168,-0.14,0.1,-0.43,0.46
29.09822702407837,-0.21,0.11,-0.57,0.61
29.100117206573486,-0.26,0.14,-0.68,0.74
29.10256814956665,-0.15,0.12,-0.83,0.85
29.104705095291138,-0.04,0.09,-1.01,1.01
29.106775045394897,0.0,0.04,-1.09,1.09
29.108641147613525,-0.04,-0.05,-1.05,1.05
29.111144065856934,-0.16,-0.18,-0.89,0.92
29.184014081954956,-0.26,-0.33,-0.68,0.79
29.186028957366943,-0.16,-0.45,-0.43,0.64
29.188104152679443,0.09,-0.4,-0.23,0.47
29.19809603691101,-0.14,-0.48,-0.24,0.55
29.200014114379883,-0.3,-0.59,-0.21,0.69
29.20262098312378,-0.28,-0.67,0.01,0.72
29.204878091812134,-0.2,-0.76,0.35,0.86
29.206759929656982,-0.06,-0.8,0.59,0.99
29.20876121520996,0.04,-0.78,0.78,1.1
29.210795879364014,0.1,-0.72,0.88,1.14
29.28343105316162,0.15,-0.66,0.81,1.05
29.285531997680664,0.18,-0.55,0.63,0.85
29.287578105926514,0.26,-0.4,0.44,0.64
29.29786705970764,0.4,-0.27,0.25,0.54
29.299731016159058,0.56,-0.12,0.14,0.58
29.302253007888794,0.7,-0.01,0.02,0.7
29.304646968841553,0.78,0.03,-0.11,0.78
29.307054042816162,0.77,0.07,-0.23,0.8
29.309115886688232,0.67,0.06,-0.3,0.73
29.31133198738098,0.54,0.04,-0.26,0.6
29.38458800315857,0.52,-0.16,-0.25,0.59
29.386775016784668,0.41,-0.18,-0.18,0.48
29.388803958892822,0.36,-0.23,0.02,0.42
29.399379014968872,0.38,-0.23,0.2,0.48
29.40140700340271,0.49,-0.22,0.35,0.64
29.403454065322876,0.6,-0.15,0.35,0.71
29.405615091323853,0.72,-0.04,0.22,0.75
29.408035039901733,0.8,0.05,-0.01,0.8
29.41017508506775,0.83,0.15,-0.18,0.86
29.41265106201172,0.78,0.23,-0.25,0.85
29.48508906364441,0.75,0.29,-0.27,0.84
29.48715114593506,0.76,0.31,-0.28,0.86
29.489021062850952,0.74,0.32,-0.25,0.84
29.498192071914673,0.68,0.31,-0.25,0.78
29.50000500679016,0.6,0.3,-0.29,0.73
29.50233221054077,0.58,0.28,-0.36,0.73
29.504425048828125,0.62,0.22,-0.41,0.77
29.506299018859863,0.63,0.18,-0.37,0.75
29.5083110332489,0.62,0.14,-0.22,0.67
29.510324001312256,0.56,0.1,0.0,0.56
29.583320140838623,0.46,0.06,0.19,0.5
29.585390090942383,0.36,0.01,0.3,0.46
29.587302207946777,0.27,0.01,0.31,0.41
29.599123001098633,0.2,0.06,0.25,0.32
29.600980043411255,0.16,0.12,0.13,0.23
29.603270053863525,0.13,0.2,-0.01,0.23
29.60531520843506,0.12,0.28,-0.22,0.37
29.60743498802185,0.13,0.36,-0.46,0.59
29.60939598083496,0.11,0.39,-0.63,0.74
29.611756086349487,0.09,0.41,-0.72,0.83
29.68423318862915,0.1,0.4,-0.6,0.72
29.686304092407227,0.12,0.36,-0.44,0.58
29.688397884368896,0.14,0.33,-0.24,0.43
29.69876003265381,0.15,0.29,-0.16,0.36
29.700593948364258,0.14,0.27,-0.3,0.42
29.70308494567871,0.08,0.31,-0.55,0.63
29.70539402961731,0.03,0.41,-0.79,0.89
29.707825183868408,0.08,0.46,-0.84,0.96
29.70966911315918,0.18,0.46,-0.54,0.73
29.712060928344727,0.25,0.47,-0.13,0.54
29.784399032592773,0.18,0.5,0.23,0.57
29.786417961120605,0.06,0.49,0.51,0.7
29.788259983062744,0.19,0.43,0.71,0.85
29.798269987106323,0.37,0.41,0.78,0.95
29.80010199546814,0.52,0.37,0.68,0.93
29.802565097808838,0.53,0.35,0.56,0.84
29.804948091506958,0.5,0.32,0.35,0.68
29.80681610107422,0.4,0.24,0.27,0.53
29.808833122253418,0.19,0.19,0.3,0.4
29.810869216918945,0.0,0.15,0.35,0.38
29.882407188415527,0.1,0.06,0.38,0.39
29.884332180023193,0.3,0.04,0.31,0.43
29.886311054229736,0.42,0.02,0.28,0.5
29.898897171020508,0.54,0.12,0.05,0.55
29.900784015655518,0.5,0.21,-0.29,0.61
29.903048992156982,0.36,0.32,-0.64,0.8
29.905402183532715,0.22,0.36,-0.89,0.98
29.907684087753296,0.15,0.32,-1.0,1.06
29.909797191619873,0.08,0.29,-0.94,0.98
29.912199020385742,0.09,0.23,-0.77,0.8
29.98392391204834,0.08,0.2,-0.61,0.64
29.98618221282959,0.07,0.14,-0.63,0.64
29.987892150878906,0.02,0.13,-0.79,0.8
29.998449087142944,-0.04,0.19,-0.99,1.0
30.000355005264282,-0.07,0.18,-1.11,1.12
30.002722024917603,-0.01,0.01,-1.02,1.02
30.004889965057373,0.08,-0.29,-0.73,0.78
30.00724697113037,-0.02,-0.57,-0.35,0.66
30.009459018707275,-0.29,-0.74,-0.02,0.79
30.01216411590576,-0.54,-0.77,0.12,0.94
30.08659601211548,-0.62,-0.75,-0.12,0.98
30.088990211486816,-0.49,-0.74,-0.47,1.0
30.090888023376465,-0.38,-0.67,-0.78,1.09
30.096801042556763,-0.38,-0.55,-0.82,1.05
30.098577976226807,-0.42,-0.43,-0.68,0.9
30.10051918029785,-0.42,-0.47,-0.5,0.8
30.102320194244385,-0.44,-0.48,-0.33,0.73
30.104546070098877,-0.4,-0.45,-0.12,0.61
30.10648012161255,-0.42,-0.43,-0.01,0.6
30.108290195465088,-0.33,-0.46,0.08,0.57
30.18142008781433,-0.16,-0.5,0.29,0.59
30.183528900146484,-0.1,-0.48,0.55,0.73
30.18531608581543,-0.12,-0.45,0.59,0.75
30.197519063949585,-0.12,-0.36,0.23,0.44
30.199464082717896,-0.05,-0.21,-0.29,0.36
30.201457023620605,0.19,-0.3,-0.59,0.68
30.203480005264282,0.27,-0.43,-0.19,0.54
30.20686912536621,0.08,-0.4,0.51,0.65
30.208989143371582,-0.16,-0.4,1.02,1.1
30.211585998535156,-0.36,-0.33,1.23,1.32
30.601862907409668,-0.6,-0.2,0.89,1.09
30.60350513458252,-0.74,-0.13,0.35,0.82
30.60496711730957,-0.74,-0.13,0.2,0.77
30.606608867645264,-0.81,-0.07,0.32,0.87
30.608220100402832,-0.85,-0.12,0.55,1.01
30.60980796813965,-0.93,-0.23,0.77,1.22
30.611379146575928,-1.01,-0.28,0.84,1.34
30.612943172454834,-1.05,-0.34,0.57,1.24
30.61448907852173,-1.03,-0.27,0.19,1.08
30.616042137145996,-0.89,-0.11,-0.28,0.93
30.62067198753357,-0.56,-0.04,-0.74,0.92
30.622180938720703,-0.29,0.0,-0.94,0.98
30.623573064804077,-0.17,0.04,-0.68,0.7
30.62495517730713,-0.09,0.0,-0.06,0.1
30.626338958740234,-0.03,0.03,0.47,0.47
30.627718925476074,0.07,0.07,0.54,0.54
30.629097938537598,0.18,0.16,0.26,0.35
30.630467891693115,0.26,0.22,-0.12,0.36
30.631810188293457,0.29,0.32,-0.37,0.56
30.633163928985596,0.44,0.3,-0.46,0.7
30.63699197769165,0.6,0.21,-0.34,0.72
30.63835096359253,0.68,0.12,-0.19,0.71
30.639708042144775,0.55,0.13,-0.12,0.57
30.641036987304688,0.3,0.24,-0.28,0.47
30.642385005950928,0.11,0.31,-0.43,0.54
30.643691062927246,-0.01,0.36,-0.41,0.54
30.64502716064453,0.0,0.28,-0.26,0.38
30.646388053894043,-0.01,0.13,0.1,0.16
30.647727012634277,-0.12,0.0,0.49,0.5
30.649071216583252,-0.26,-0.16,0.73,0.79
30.6528160572052,-0.44,-0.24,0.96,1.08
30.654160022735596,-0.56,-0.26,1.03,1.2
30.65531301498413,-0.56,-0.26,0.94,1.12
30.65666103363037,-0.51,-0.21,0.74,0.92
30.658031940460205,-0.39,-0.13,0.47,0.62
30.659358024597168,-0.26,0.02,0.22,0.34
30.660696983337402,-0.17,0.2,-0.02,0.26
30.662044048309326,-0.04,0.35,-0.29,0.45
30.663403034210205,0.06,0.45,-0.54,0.7
30.664745092391968,0.03,0.6,-0.68,0.9
30.668485164642334,-0.09,0.75,-0.61,0.97
30.66983413696289,-0.19,0.85,-0.38,0.95
30.671181201934814,-0.25,0.86,-0.15,0.9
30.672529220581055,-0.36,0.88,-0.05,0.95
30.6738920211792,-0.39,0.85,-0.09,0.93
30.67533016204834,-0.29,0.79,-0.23,0.87
30.67673397064209,-0.23,0.75,-0.43,0.89
30.684325218200684,-0.18,0.68,-0.54,0.88
30.689352989196777,-0.19,0.54,-0.6,0.82
30.698875904083252,-0.27,0.39,-0.54,0.71
30.725035190582275,-0.36,0.25,-0.41,0.6
30.729411125183105,-0.33,0.14,-0.31,0.47
30.736546993255615,-0.22,0.06,-0.27,0.35
30.742836952209473,-0.16,-0.03,-0.35,0.38
30.752739906311035,-0.17,-0.08,-0.5,0.53
30.75839614868164,-0.23,-0.14,-0.6,0.65
30.763516902923584,-0.3,-0.21,-0.66,0.75
30.770304203033447,-0.33,-0.31,-0.68,0.81
30.774989128112793,-0.33,-0.36,-0.68,0.83
30.781042098999023,-0.27,-0.44,-0.67,0.84
30.812265872955322,-0.18,-0.51,-0.65,0.84
30.821589946746826,-0.12,-0.58,-0.59,0.83
30.832942962646484,-0.09,-0.72,-0.49,0.87
30.843314170837402,-0.11,-0.85,-0.28,0.9
30.85280704498291,-0.15,-0.96,0.0,0.97
30.86362314224243,-0.14,-1.07,0.26,1.11
30.876230001449585,-0.14,-1.08,0.48,1.19
30.891611099243164,-0.11,-1.04,0.65,1.23
30.908434867858887,-0.05,-0.97,0.69,1.19
30.925565004348755,-0.03,-0.87,0.64,1.08
30.973543167114258,-0.03,-0.76,0.53,0.92
30.990315914154053,-0.01,-0.68,0.46,0.82
31.007340908050537,0.03,-0.6,0.5,0.78
31.02408790588379,0.08,-0.55,0.65,0.85
31.038951873779297,0.08,-0.5,0.81,0.95
31.055649042129517,0.1,-0.45,0.88,0.99
31.07455587387085,0.18,-0.39,0.82,0.92
31.091822147369385,0.26,-0.27,0.63,0.73
31.129519939422607,0.37,-0.15,0.34,0.52
31.1395320892334,0.49,-0.03,0.04,0.49
31.182029008865356,0.61,0.11,-0.14,0.63
31.19844102859497,0.71,0.22,-0.25,0.78
31.214010000228882,0.84,0.26,-0.25,0.91
31.23033308982849,0.92,0.32,-0.21,0.99
31.25163221359253,0.93,0.33,-0.05,0.98
31.262898921966553,0.83,0.3,0.2,0.9
31.279152870178223,0.73,0.24,0.34,0.84
31.295582056045532,0.61,0.23,0.35,0.73
31.31416606903076,0.46,0.22,0.18,0.54
31.326880931854248,0.35,0.21,-0.05,0.41
31.350791931152344,0.23,0.28,-0.18,0.4
31.36699604988098,0.14,0.34,-0.19,0.41
31.382342100143433,0.05,0.32,-0.14,0.35
31.398956060409546,-0.1,0.3,-0.11,0.33
31.415185928344727,-0.3,0.35,-0.19,0.49
31.431528091430664,-0.44,0.45,-0.35,0.72
31.450072050094604,-0.45,0.59,-0.68,1.0
31.460447072982788,-0.38,0.8,-1.1,1.41
31.474141120910645,-0.29,0.98,-1.51,1.82
31.490707874298096,-0.23,1.14,-1.8,2.14
31.535038948059082,-0.17,1.27,-2.04,2.4
31.551302909851074,-0.14,1.35,-2.12,2.51
31.567859172821045,-0.1,1.37,-2.07,2.48
31.593796014785767,-0.09,1.4,-1.82,2.29
31.608784198760986,-0.12,1.46,-1.56,2.14
31.62687587738037,-0.11,1.51,-1.43,2.08
31.644670009613037,-0.02,1.63,-1.36,2.12
31.661675930023193,0.13,1.78,-1.46,2.3
31.679527044296265,0.29,1.94,-1.62,2.54
31.695913076400757,0.52,2.1,-1.74,2.77
31.74244499206543,0.76,2.2,-1.79,2.93
31.75967001914978,0.82,2.3,-1.71,2.98
31.777223110198975,0.8,2.43,-1.67,3.05
31.794947147369385,0.85,2.53,-1.69,3.15
31.81183099746704,0.95,2.65,-1.84,3.36
31.83177399635315,1.12,2.78,-1.92,3.55
